sid,time,altitude,acceleration,acceleration-X,acceleration-Y,acceleration-Z,SPS,Reliability,RSSI
4026,-0.674,0.00,1.23,-1.18,0.15,-0.34,0.00,100.0,-64
4027,-0.474,0.00,1.17,-1.13,0.10,-0.29,0.00,100.0,-64
4028,-0.274,-0.09,1.23,-1.18,0.15,-0.34,0.00,100.0,-64
4029,-0.074,-0.09,1.22,-1.18,0.15,-0.29,0.00,100.0,-64
4030,0.126,-0.07,1.23,-1.18,0.15,-0.34,0.00,100.0,-64
4031,0.326,-0.02,1.18,-1.13,0.10,-0.34,0.00,100.0,-64
4032,0.409,0.03,1.23,-1.18,0.15,-0.34,5.54,100.0,-61
4033,0.493,-0.04,1.27,-1.22,0.15,-0.29,5.14,100.0,-61
4034,0.576,-0.11,1.20,-1.18,0.10,-0.24,4.80,100.0,-61
4035,0.660,-0.11,1.23,-1.18,0.15,-0.34,4.50,100.0,-61
4036,0.743,-0.18,1.22,-1.18,0.10,-0.29,4.23,100.0,-61
4037,0.827,-0.24,1.17,-1.13,0.15,-0.29,4.00,100.0,-61
4038,0.910,-0.10,1.17,-1.13,0.10,-0.29,7.57,100.0,-60
4039,0.994,-0.09,1.16,-1.13,0.15,-0.24,7.19,100.0,-60
4040,1.078,-0.12,1.22,-1.18,0.10,-0.29,6.85,100.0,-60
4041,1.161,-0.12,1.22,-1.18,0.15,-0.29,6.54,100.0,-60
4042,1.245,-0.14,1.28,-1.22,0.15,-0.34,6.25,100.0,-60
4043,1.328,-0.10,1.17,-1.13,0.15,-0.29,5.99,100.0,-60
4044,1.412,0.01,1.27,-1.22,0.15,-0.29,8.63,100.0,-59
4045,1.496,-0.05,1.23,-1.18,0.15,-0.34,8.30,100.0,-59
4046,1.579,-0.12,1.14,-1.08,0.10,-0.34,7.99,100.0,-59
4047,1.663,-0.12,1.19,-1.13,0.15,-0.34,7.70,100.0,-59
4048,1.747,-0.12,1.22,-1.18,0.15,-0.29,7.44,100.0,-59
4049,1.830,-0.10,1.19,-1.13,0.15,-0.34,7.19,100.0,-59
4050,1.931,-0.11,1.23,-1.18,0.10,-0.34,9.21,100.0,-59
4051,2.031,-0.11,1.21,-1.18,0.15,-0.24,8.87,100.0,-59
4052,2.131,-0.08,1.22,-1.18,0.15,-0.29,8.56,100.0,-59
4053,2.231,-0.08,1.13,-1.08,0.15,-0.29,8.26,100.0,-59
4054,2.332,-0.13,1.18,-1.13,0.20,-0.29,7.98,100.0,-59
4055,2.432,-0.15,1.23,-1.18,0.15,-0.34,7.73,100.0,-59
4056,2.516,-0.12,1.23,-1.18,0.15,-0.34,9.40,100.0,-60
4057,2.599,-0.17,1.23,-1.18,0.15,-0.34,9.16,100.0,-60
4058,2.683,-0.22,1.17,-1.13,0.15,-0.29,8.94,100.0,-60
4059,2.767,-0.22,1.13,-1.08,0.15,-0.29,8.72,100.0,-60
4060,2.850,-0.25,1.27,-1.22,0.15,-0.29,8.51,100.0,-60
4061,2.934,-0.21,1.26,-1.22,0.20,-0.24,8.31,100.0,-60
4062,3.018,-0.17,1.23,-1.18,0.10,-0.34,9.75,100.0,-64
4063,3.101,-0.23,1.17,-1.13,0.15,-0.29,9.54,100.0,-64
4064,3.185,-0.20,1.19,-1.13,0.15,-0.34,9.33,100.0,-64
4065,3.268,-0.20,1.17,-1.13,0.10,-0.29,9.13,100.0,-64
4066,3.352,-0.28,1.18,-1.13,0.10,-0.34,8.94,100.0,-64
4067,3.436,-0.26,1.22,-1.18,0.15,-0.29,8.76,100.0,-64
4068,3.519,-0.21,1.23,-1.18,0.15,-0.34,10.02,100.0,-60
4069,3.603,-0.17,1.22,-1.13,0.15,-0.44,9.82,100.0,-60
4070,3.687,-0.15,1.22,-1.18,0.15,-0.29,9.63,100.0,-60
4071,3.770,-0.15,1.23,-1.18,0.15,-0.34,9.45,100.0,-60
4072,3.854,-0.18,1.22,-1.18,0.10,-0.29,9.28,100.0,-60
4073,3.938,-0.18,1.23,-1.18,0.10,-0.34,9.11,100.0,-60
4074,4.038,-0.08,1.19,-1.13,0.15,-0.34,10.19,100.0,-60
4075,4.138,-0.15,1.23,-1.18,0.15,-0.34,9.97,100.0,-60
4076,4.238,-0.13,1.22,-1.18,0.10,-0.29,9.77,100.0,-60
4077,4.339,-0.13,1.23,-1.18,0.15,-0.34,9.58,100.0,-60
4078,4.439,-0.14,1.17,-1.13,0.05,-0.29,9.39,100.0,-60
4079,4.539,-0.15,1.22,-1.18,0.15,-0.29,9.21,100.0,-60
4080,4.623,-0.07,1.18,-1.13,0.10,-0.34,10.19,100.0,-60
4081,4.707,-0.22,1.27,-1.22,0.15,-0.29,10.04,100.0,-60
4082,4.790,-0.24,1.23,-1.18,0.10,-0.34,9.88,100.0,-60
4083,4.874,-0.24,1.23,-1.18,0.15,-0.34,9.73,100.0,-60
4084,4.958,-0.23,1.18,-1.13,0.20,-0.29,9.59,100.0,-60
4085,5.041,-0.25,1.31,-1.22,0.15,-0.44,9.45,100.0,-60
4086,5.125,-0.12,1.25,-1.22,0.15,-0.20,10.35,100.0,-61
4087,5.208,-0.19,1.18,-1.13,0.10,-0.34,10.20,100.0,-61
4088,5.292,-0.16,1.21,-1.18,0.15,-0.24,10.06,100.0,-61
4089,5.375,-0.16,1.17,-1.13,0.15,-0.29,9.92,100.0,-61
4090,5.459,-0.23,1.15,-1.13,0.10,-0.20,9.78,100.0,-61
4091,5.542,-0.17,1.13,-1.08,0.15,-0.29,9.65,100.0,-61
4092,5.626,-0.14,1.22,-1.18,0.15,-0.29,10.48,100.0,-61
4093,5.709,-0.15,1.21,-1.18,0.15,-0.24,10.34,100.0,-61
4094,5.793,-0.18,1.19,-1.13,0.15,-0.34,10.21,100.0,-61
4095,5.877,-0.18,1.23,-1.18,0.15,-0.34,10.08,100.0,-61
4096,5.960,-0.24,1.22,-1.18,0.15,-0.29,9.95,100.0,-61
4097,6.044,-0.31,1.20,-1.18,0.10,-0.24,9.82,100.0,-61
4098,6.144,-0.23,1.18,-1.13,0.10,-0.34,10.56,100.0,-60
4099,6.245,-0.24,1.22,-1.18,0.15,-0.29,10.41,100.0,-60
4100,6.345,-0.32,1.21,-1.18,0.15,-0.24,10.26,100.0,-60
4101,6.445,-0.32,1.17,-1.13,0.20,-0.24,10.11,100.0,-60
4102,6.545,-0.31,1.22,-1.18,0.15,-0.29,9.97,100.0,-60
4103,6.646,-0.23,1.16,-1.13,0.15,-0.24,9.84,100.0,-60
4104,6.729,-0.23,1.22,-1.18,0.15,-0.29,10.54,100.0,-60
4105,6.813,-0.28,1.25,-1.18,0.15,-0.39,10.42,100.0,-60
4106,6.897,-0.33,1.22,-1.18,0.15,-0.29,10.30,100.0,-60
4107,6.980,-0.33,1.19,-1.13,0.15,-0.34,10.19,100.0,-60
4108,7.064,-0.28,1.20,-1.13,0.10,-0.39,10.08,100.0,-60
4109,7.148,-0.23,1.22,-1.18,0.10,-0.29,9.97,100.0,-60
4110,7.231,-0.23,1.23,-1.18,0.10,-0.34,10.63,100.0,-61
4111,7.315,-0.20,1.23,-1.18,0.10,-0.34,10.51,100.0,-61
4112,7.398,-0.21,1.19,-1.13,0.15,-0.34,10.41,100.0,-61
4113,7.482,-0.21,1.23,-1.18,0.15,-0.34,10.30,100.0,-61
4114,7.566,-0.30,1.21,-1.18,0.15,-0.24,10.19,100.0,-61
4115,7.649,-0.23,1.21,-1.18,0.15,-0.24,10.09,100.0,-61
4116,7.733,-0.19,1.23,-1.18,0.15,-0.34,10.71,100.0,-63
4117,7.817,-0.26,1.20,-1.18,0.10,-0.24,10.60,100.0,-63
4118,7.900,-0.21,1.18,-1.13,0.20,-0.29,10.50,100.0,-63
4119,7.984,-0.21,1.15,-1.13,0.15,-0.20,10.39,100.0,-63
4120,8.068,-0.24,1.17,-1.13,0.10,-0.29,10.30,100.0,-63
4121,8.151,-0.22,1.23,-1.18,0.10,-0.34,10.20,100.0,-63
4122,8.251,-0.12,1.23,-1.18,0.15,-0.34,10.76,100.0,-61
4123,8.352,-0.14,1.23,-1.18,0.15,-0.34,10.64,100.0,-61
4124,8.452,-0.16,1.23,-1.18,0.20,-0.29,10.52,100.0,-61
4125,8.552,-0.16,1.22,-1.18,0.10,-0.29,10.40,100.0,-61
4126,8.653,-0.15,1.22,-1.18,0.15,-0.29,10.52,100.0,-61
4127,8.753,-0.20,1.17,-1.13,0.15,-0.29,10.63,100.0,-61
4128,8.837,-0.13,1.22,-1.18,0.10,-0.29,11.45,100.0,-63
4129,8.920,-0.21,1.17,-1.13,0.15,-0.29,11.60,100.0,-63
4130,9.004,-0.23,1.22,-1.18,0.10,-0.29,11.75,100.0,-63
4131,9.087,-0.23,1.17,-1.13,0.10,-0.29,11.06,100.0,-63
4132,9.171,-0.25,1.22,-1.18,0.10,-0.29,11.06,100.0,-63
4133,9.255,-0.26,1.20,-1.18,0.15,-0.20,11.06,100.0,-63
4134,9.338,-0.16,1.22,-1.18,0.15,-0.29,11.75,100.0,-61
4135,9.422,-0.15,1.23,-1.18,0.15,-0.34,11.75,100.0,-61
4136,9.506,-0.18,1.16,-1.13,0.15,-0.24,11.75,100.0,-61
4137,9.589,-0.18,1.17,-1.13,0.10,-0.29,11.06,100.0,-61
4138,9.673,-0.25,1.18,-1.13,0.10,-0.34,11.06,100.0,-61
4139,9.757,-0.21,1.14,-1.08,0.15,-0.34,11.06,100.0,-61
4140,9.840,-0.06,1.22,-1.18,0.15,-0.29,11.75,100.0,-59
4141,9.923,-0.12,1.17,-1.13,0.15,-0.29,11.75,100.0,-59
4142,10.007,-0.16,1.22,-1.18,0.15,-0.29,11.75,100.0,-59
4143,10.090,-0.16,1.23,-1.18,0.10,-0.34,11.06,100.0,-59
4144,10.174,-0.26,1.23,-1.18,0.15,-0.34,11.06,100.0,-59
4145,10.257,-0.19,1.21,-1.18,0.15,-0.24,11.06,100.0,-59
4146,10.341,-0.18,1.17,-1.13,0.15,-0.29,11.75,100.0,-61
4147,10.425,-0.18,1.22,-1.18,0.15,-0.29,11.75,100.0,-61
4148,10.508,-0.21,1.23,-1.18,0.10,-0.34,11.75,100.0,-61
4149,10.592,-0.21,1.23,-1.18,0.20,-0.29,11.08,100.0,-61
4150,10.676,-0.19,1.23,-1.18,0.15,-0.34,11.11,100.0,-61
4151,10.759,-0.20,1.22,-1.18,0.15,-0.29,11.13,100.0,-61
4152,10.859,-0.16,1.23,-1.18,0.15,-0.34,11.82,100.0,-63
4153,10.960,-0.19,1.23,-1.18,0.15,-0.34,11.82,100.0,-63
4154,11.060,-0.21,1.19,-1.13,0.15,-0.34,11.82,100.0,-63
4155,11.160,-0.21,1.23,-1.18,0.15,-0.34,11.11,100.0,-63
4156,11.261,-0.26,1.14,-1.08,0.15,-0.34,11.08,100.0,-63
4157,11.361,-0.20,1.25,-1.22,0.10,-0.24,11.06,100.0,-63
4158,11.445,-0.11,1.26,-1.22,0.15,-0.24,11.75,100.0,-64
4159,11.528,-0.19,1.22,-1.18,0.15,-0.29,11.75,100.0,-64
4160,11.612,-0.19,1.17,-1.13,0.10,-0.29,11.75,100.0,-64
4161,11.695,-0.19,1.17,-1.13,0.15,-0.29,11.06,100.0,-64
4162,11.779,-0.23,1.17,-1.13,0.10,-0.29,11.06,100.0,-64
4163,11.863,-0.23,1.14,-1.08,0.15,-0.34,11.06,100.0,-64
4164,11.946,-0.21,1.20,-1.13,0.15,-0.39,11.75,100.0,-63
4165,12.030,-0.20,1.21,-1.18,0.15,-0.24,11.75,100.0,-63
4166,12.114,-0.21,1.23,-1.18,0.15,-0.34,11.75,100.0,-63
4167,12.197,-0.21,1.22,-1.18,0.15,-0.29,11.06,100.0,-63
4168,12.281,-0.22,1.24,-1.18,0.20,-0.34,11.06,100.0,-63
4169,12.365,-0.15,1.24,-1.18,0.20,-0.34,11.06,100.0,-63
4170,12.448,-0.06,1.28,-1.22,0.15,-0.34,11.75,100.0,-64
4171,12.532,-0.12,1.23,-1.18,0.15,-0.34,11.75,100.0,-64
4172,12.615,-0.13,1.23,-1.18,0.15,-0.34,11.75,100.0,-64
4173,12.699,-0.13,1.18,-1.13,0.20,-0.29,11.08,100.0,-64
4174,12.783,-0.23,1.17,-1.13,0.15,-0.29,11.11,100.0,-64
4175,12.866,-0.22,1.22,-1.18,0.15,-0.29,11.13,100.0,-64
4176,12.967,-0.15,1.18,-1.13,0.10,-0.34,11.82,100.0,-63
4177,13.067,-0.22,1.17,-1.13,0.15,-0.29,11.82,100.0,-63
4178,13.167,-0.20,1.17,-1.13,0.15,-0.29,11.82,100.0,-63
4179,13.267,-0.20,1.29,-1.22,0.20,-0.34,11.11,100.0,-63
4180,13.368,-0.28,1.18,-1.13,0.20,-0.29,11.08,100.0,-63
4181,13.468,-0.19,1.14,-1.08,0.10,-0.34,11.06,100.0,-63
4182,13.552,-0.13,1.23,-1.18,0.15,-0.34,11.75,100.0,-63
4183,13.635,-0.13,1.29,-1.22,0.15,-0.39,11.75,100.0,-63
4184,13.719,-0.23,1.22,-1.18,0.10,-0.29,11.75,100.0,-63
4185,13.803,-0.23,1.13,-1.08,0.15,-0.29,11.06,100.0,-63
4186,13.886,-0.35,1.17,-1.13,0.10,-0.29,11.06,100.0,-63
4187,13.970,-0.25,1.17,-1.13,0.15,-0.29,11.06,100.0,-63
4188,14.053,-0.19,1.19,-1.13,0.15,-0.34,11.75,100.0,-64
4189,14.137,-0.26,1.24,-1.18,0.10,-0.39,11.75,100.0,-64
4190,14.221,-0.21,1.19,-1.13,0.15,-0.34,11.75,100.0,-64
4191,14.304,-0.21,1.17,-1.13,0.10,-0.29,11.06,100.0,-64
4192,14.388,-0.26,1.23,-1.18,0.15,-0.34,11.06,100.0,-64
4193,14.472,-0.22,1.23,-1.18,0.10,-0.34,11.06,100.0,-64
4194,14.555,-0.17,1.24,-1.18,0.20,-0.34,11.75,100.0,-64
4195,14.639,-0.27,1.17,-1.13,0.15,-0.29,11.75,100.0,-64
4196,14.723,-0.32,1.22,-1.18,0.10,-0.29,11.75,100.0,-64
4197,14.806,-0.32,1.17,-1.13,0.10,-0.29,11.08,100.0,-64
4198,14.890,-0.30,1.21,-1.18,0.15,-0.24,11.10,100.0,-64
4199,14.973,-0.30,1.18,-1.13,0.10,-0.34,11.13,100.0,-64
4200,15.074,-0.17,1.20,-1.18,0.10,-0.24,11.82,100.0,-61
4201,15.174,-0.20,1.23,-1.18,0.15,-0.34,11.82,100.0,-61
4202,15.274,-0.23,1.11,-1.08,0.15,-0.24,11.82,100.0,-61
4203,15.375,-0.23,1.18,-1.13,0.10,-0.34,11.10,100.0,-61
4204,15.475,-0.27,1.22,-1.18,0.10,-0.29,11.08,100.0,-61
4205,15.575,-0.31,1.19,-1.13,0.15,-0.34,11.06,100.0,-61
4206,15.659,-0.20,1.19,-1.13,0.15,-0.34,11.75,100.0,-63
4207,15.742,-0.17,1.19,-1.13,0.15,-0.34,11.75,100.0,-63
4208,15.826,-0.13,1.17,-1.13,0.10,-0.29,11.75,100.0,-63
4209,15.910,-0.13,1.19,-1.13,0.20,-0.34,11.06,100.0,-63
4210,15.993,-0.11,1.20,-1.18,0.10,-0.24,11.06,100.0,-63
4211,16.077,-0.19,1.19,-1.13,0.15,-0.34,11.06,100.0,-63
4212,16.160,-0.11,1.27,-1.22,0.15,-0.29,11.75,100.0,-64
4213,16.244,-0.12,1.17,-1.13,0.10,-0.29,11.75,100.0,-64
4214,16.328,-0.13,1.17,-1.13,0.15,-0.29,11.75,100.0,-64
4215,16.411,-0.13,1.20,-1.13,0.15,-0.39,11.06,100.0,-64
4216,16.495,-0.16,1.19,-1.13,0.15,-0.34,11.06,100.0,-64
4217,16.579,-0.14,1.25,-1.18,0.20,-0.39,11.06,100.0,-64
4218,16.662,-0.07,1.19,-1.13,0.15,-0.34,11.75,100.0,-63
4219,16.746,-0.19,1.22,-1.18,0.10,-0.29,11.75,100.0,-63
4220,16.830,-0.15,1.23,-1.18,0.10,-0.34,11.75,100.0,-63
4221,16.913,-0.15,1.19,-1.13,0.15,-0.34,11.08,100.0,-63
4222,16.997,-0.19,1.17,-1.13,0.10,-0.29,11.10,100.0,-63
4223,17.081,-0.23,1.17,-1.13,0.10,-0.29,11.13,100.0,-63
4224,17.181,-0.16,1.25,-1.18,0.20,-0.39,11.82,100.0,-63
4225,17.281,-0.17,1.17,-1.13,0.10,-0.29,11.82,100.0,-63
4226,17.381,-0.21,1.20,-1.13,0.15,-0.39,11.82,100.0,-63
4227,17.482,-0.21,1.16,-1.13,0.15,-0.24,11.10,100.0,-63
4228,17.582,-0.30,1.21,-1.18,0.15,-0.24,11.08,100.0,-63
4229,17.682,-0.26,1.16,-1.13,0.15,-0.24,11.06,100.0,-63
4230,17.766,-0.24,1.17,-1.13,0.15,-0.29,11.75,100.0,-63
4231,17.849,-0.26,1.17,-1.13,0.15,-0.29,11.75,100.0,-63
4232,17.933,-0.23,1.16,-1.13,0.10,-0.24,11.75,100.0,-63
4233,18.017,-0.23,1.19,-1.13,0.15,-0.34,11.06,100.0,-63
4234,18.100,-0.22,1.16,-1.13,0.15,-0.24,11.06,100.0,-63
4235,18.184,-0.23,1.20,-1.18,0.10,-0.24,11.06,100.0,-63
4236,18.268,-0.14,1.16,-1.13,0.15,-0.24,11.75,100.0,-60
4237,18.351,-0.20,1.24,-1.18,0.20,-0.34,11.75,100.0,-60
4238,18.435,-0.21,1.32,-1.27,0.15,-0.29,11.75,100.0,-60
4239,18.518,-0.21,1.27,-1.22,0.20,-0.29,11.06,100.0,-60
4240,18.602,-0.25,1.22,-1.18,0.15,-0.29,11.06,100.0,-60
4241,18.686,-0.20,1.23,-1.18,0.15,-0.34,11.06,100.0,-60
4242,18.769,-0.17,1.22,-1.18,0.10,-0.29,11.75,100.0,-60
4243,18.853,-0.17,1.19,-1.13,0.15,-0.34,11.75,100.0,-60
4244,18.937,-0.25,1.27,-1.22,0.15,-0.29,11.75,100.0,-60
4245,19.020,-0.25,1.27,-1.22,0.15,-0.29,11.06,100.0,-60
4246,19.104,-0.28,1.21,-1.18,0.15,-0.24,11.06,100.0,-60
4247,19.188,-0.29,1.21,-1.18,0.15,-0.24,11.06,100.0,-60
4248,19.288,-0.24,1.21,-1.18,0.15,-0.24,11.73,100.0,-60
4249,19.388,-0.24,1.22,-1.18,0.15,-0.29,11.71,100.0,-60
4250,19.488,-0.26,1.26,-1.22,0.10,-0.29,11.68,100.0,-60
4251,19.589,-0.26,1.26,-1.22,0.10,-0.29,11.00,100.0,-60
4252,19.689,-0.31,1.19,-1.13,0.15,-0.34,11.00,100.0,-60
4253,19.789,-0.22,1.28,-1.22,0.15,-0.34,11.00,100.0,-60
4254,19.873,-0.17,1.23,-1.18,0.15,-0.34,11.71,100.0,-60
4255,19.957,-0.18,1.11,-1.08,0.15,-0.24,11.73,100.0,-60
4256,20.040,-0.16,1.23,-1.18,0.20,-0.29,11.75,100.0,-60
4257,20.124,-0.16,1.27,-1.22,0.15,-0.29,11.06,100.0,-60
4258,20.208,-0.22,1.23,-1.18,0.15,-0.34,11.06,100.0,-60
4259,20.291,-0.26,1.19,-1.13,0.15,-0.34,11.06,100.0,-60
4260,20.375,-0.18,1.16,-1.13,0.15,-0.24,11.75,100.0,-61
4261,20.458,-0.17,1.16,-1.13,0.10,-0.24,11.75,100.0,-61
4262,20.542,-0.16,1.23,-1.18,0.20,-0.29,11.75,100.0,-61
4263,20.625,-0.16,1.20,-1.18,0.10,-0.24,11.06,100.0,-61
4264,20.708,-0.14,1.23,-1.18,0.15,-0.34,11.06,100.0,-61
4265,20.792,-0.07,1.17,-1.13,0.10,-0.29,11.06,100.0,-61
4266,20.876,-0.04,1.12,-1.08,0.10,-0.29,11.75,100.0,-61
4267,20.959,0.02,1.23,-1.18,0.15,-0.34,11.75,100.0,-61
4268,21.043,-0.03,1.23,-1.18,0.15,-0.34,11.75,100.0,-61
4269,21.126,-0.03,1.27,-1.22,0.15,-0.29,11.06,100.0,-61
4270,21.210,-0.11,1.19,-1.13,0.15,-0.34,11.06,100.0,-61
4271,21.294,-0.17,1.23,-1.18,0.15,-0.34,11.06,100.0,-61
4272,21.377,-0.09,1.26,-1.22,0.10,-0.29,11.75,100.0,-61
4273,21.461,-0.14,1.24,-1.18,0.10,-0.39,11.75,100.0,-61
4274,21.545,-0.17,1.21,-1.18,0.15,-0.24,11.75,100.0,-61
4275,21.628,-0.17,1.22,-1.18,0.15,-0.29,11.08,100.0,-61
4276,21.712,-0.22,1.27,-1.22,0.15,-0.29,11.10,100.0,-61
4277,21.796,-0.24,1.19,-1.13,0.15,-0.34,11.13,100.0,-61
4278,21.896,-0.23,1.18,-1.13,0.10,-0.34,11.82,100.0,-64
4279,21.996,-0.24,1.16,-1.08,0.15,-0.39,11.82,100.0,-64
4280,22.096,-0.31,1.19,-1.13,0.15,-0.34,11.82,100.0,-64
4281,22.197,-0.31,1.24,-1.18,0.10,-0.39,11.10,100.0,-64
4282,22.297,-0.32,1.23,-1.18,0.15,-0.34,11.08,100.0,-64
4283,22.397,-0.29,1.16,-1.13,0.10,-0.24,11.06,100.0,-64
4284,22.481,-0.23,1.19,-1.13,0.15,-0.34,11.75,100.0,-60
4285,22.564,-0.22,1.23,-1.18,0.20,-0.29,11.75,100.0,-60
4286,22.648,-0.22,1.17,-1.13,0.15,-0.29,11.75,100.0,-60
4287,22.732,-0.22,1.23,-1.18,0.15,-0.34,11.06,100.0,-60
4288,22.815,-0.19,1.19,-1.13,0.15,-0.34,11.06,100.0,-60
4289,22.899,-0.25,1.22,-1.18,0.10,-0.29,11.06,100.0,-60
4290,22.983,-0.15,1.17,-1.13,0.10,-0.29,11.75,100.0,-63
4291,23.066,-0.31,1.24,-1.18,0.10,-0.39,11.75,100.0,-63
4292,23.150,-0.23,1.19,-1.13,0.15,-0.34,11.75,100.0,-63
4293,23.234,-0.23,1.18,-1.13,0.10,-0.34,11.06,100.0,-63
4294,23.317,-0.24,1.21,-1.18,0.15,-0.24,11.06,100.0,-63
4295,23.401,-0.19,1.17,-1.13,0.15,-0.29,11.06,100.0,-63
4296,23.485,-0.14,1.24,-1.18,0.10,-0.39,11.75,100.0,-64
4297,23.568,-0.19,1.19,-1.13,0.15,-0.34,11.75,100.0,-64
4298,23.652,-0.18,1.20,-1.18,0.10,-0.24,11.75,100.0,-64
4299,23.735,-0.18,1.18,-1.13,0.10,-0.34,11.08,100.0,-64
4300,23.819,-0.26,1.17,-1.13,0.10,-0.29,11.10,100.0,-64
4301,23.903,-0.24,1.14,-1.08,0.15,-0.34,11.13,100.0,-64
4302,24.003,-0.14,1.21,-1.18,0.15,-0.24,11.82,100.0,-65
4303,24.103,-0.17,1.24,-1.18,0.10,-0.39,11.82,100.0,-65
4304,24.204,-0.21,1.23,-1.18,0.20,-0.29,11.82,100.0,-65
4305,24.304,-0.21,1.25,-1.18,0.15,-0.39,11.10,100.0,-65
4306,24.404,-0.18,1.22,-1.18,0.10,-0.29,11.08,100.0,-65
4307,24.504,-0.26,1.22,-1.18,0.10,-0.29,11.06,100.0,-65
4308,24.588,-0.25,1.21,-1.18,0.15,-0.24,11.75,100.0,-64
4309,24.671,-0.28,1.21,-1.18,0.15,-0.24,11.75,100.0,-64
4310,24.755,-0.23,1.18,-1.13,0.10,-0.34,11.75,100.0,-64
4311,24.838,-0.23,1.25,-1.18,0.15,-0.39,11.06,100.0,-64
4312,24.922,-0.30,1.23,-1.18,0.10,-0.34,11.06,100.0,-64
4313,25.005,-0.22,1.19,-1.13,0.15,-0.34,11.06,100.0,-64
4314,25.089,-0.19,1.23,-1.18,0.15,-0.34,11.75,100.0,-65
4315,25.173,-0.27,1.23,-1.18,0.10,-0.34,11.75,100.0,-65
4316,25.256,-0.24,1.23,-1.18,0.10,-0.34,11.75,100.0,-65
4317,25.340,-0.24,1.23,-1.18,0.10,-0.34,11.06,100.0,-65
4318,25.423,-0.31,1.17,-1.13,0.10,-0.29,11.06,100.0,-65
4319,25.507,-0.29,1.23,-1.18,0.15,-0.34,11.06,100.0,-65
4320,25.591,-0.24,1.22,-1.18,0.15,-0.29,11.75,100.0,-64
4321,25.674,-0.32,1.13,-1.08,0.15,-0.29,11.75,100.0,-64
4322,25.758,-0.38,1.23,-1.18,0.15,-0.34,11.75,100.0,-64
4323,25.842,-0.38,1.19,-1.13,0.15,-0.34,11.08,100.0,-64
4324,25.925,-0.33,1.22,-1.18,0.10,-0.29,11.11,100.0,-64
4325,26.009,-0.28,1.19,-1.13,0.15,-0.34,11.13,100.0,-64
4326,26.109,-0.14,1.21,-1.18,0.15,-0.24,11.82,100.0,-65
4327,26.210,-0.15,1.23,-1.18,0.10,-0.34,11.82,100.0,-65
4328,26.310,-0.13,1.21,-1.18,0.15,-0.24,11.82,100.0,-65
4329,26.410,-0.13,1.17,-1.13,0.15,-0.29,11.11,100.0,-65
4330,26.510,-0.21,1.24,-1.18,0.20,-0.34,11.08,100.0,-65
4331,26.611,-0.26,1.18,-1.13,0.20,-0.29,11.06,100.0,-65
4332,26.694,-0.15,1.23,-1.18,0.10,-0.34,11.75,100.0,-64
4333,26.778,-0.19,1.20,-1.13,0.10,-0.39,11.75,100.0,-64
4334,26.861,-0.17,1.24,-1.18,0.20,-0.34,11.76,100.0,-64
4335,26.944,-0.17,1.17,-1.13,0.15,-0.29,11.06,100.0,-64
4336,27.028,-0.13,1.21,-1.18,0.15,-0.24,11.06,100.0,-64
4337,27.111,-0.16,1.18,-1.13,0.10,-0.34,11.06,100.0,-64
4338,27.195,-0.18,1.28,-1.22,0.15,-0.34,11.76,100.0,-55
4339,27.279,-0.22,1.22,-1.13,0.15,-0.44,11.76,100.0,-55
4340,27.362,-0.23,1.22,-1.18,0.15,-0.29,11.76,100.0,-55
4341,27.446,-0.23,1.20,-1.18,0.10,-0.24,11.06,100.0,-55
4342,27.530,-0.25,1.23,-1.18,0.20,-0.29,11.06,100.0,-55
4343,27.613,-0.23,1.20,-1.18,0.10,-0.24,11.06,100.0,-55
4344,27.697,-0.26,3.56,-3.53,0.29,-0.39,11.76,100.0,-68
4345,27.781,0.41,3.47,-3.43,0.29,-0.39,11.76,100.0,-68
4346,27.864,1.00,3.41,-3.38,0.29,-0.34,11.76,100.0,-68
4347,27.948,1.00,3.42,-3.38,0.34,-0.39,11.09,100.0,-68
4348,28.031,1.46,3.43,-3.38,0.39,-0.39,11.11,100.0,-68
4349,28.115,2.02,3.43,-3.38,0.39,-0.39,11.13,100.0,-68
4350,28.215,2.55,0.38,-0.24,0.15,-0.24,11.82,100.0,-77
4351,28.316,4.94,0.38,-0.05,0.15,-0.34,11.82,100.0,-77
4352,28.416,6.91,0.29,0.00,0.15,-0.24,11.82,100.0,-77
4353,28.516,6.91,0.33,0.00,0.15,-0.29,11.11,100.0,-77
4354,28.617,8.52,0.33,0.05,0.15,-0.29,11.09,100.0,-77
4355,28.717,9.94,0.38,0.05,0.15,-0.34,11.06,100.0,-77
4356,28.800,11.14,0.29,0.00,0.15,-0.24,11.76,100.0,-85
4357,28.884,14.02,0.35,0.00,0.20,-0.29,11.76,100.0,-85
4358,28.968,16.28,0.33,0.00,0.15,-0.29,11.76,100.0,-85
4359,29.051,16.28,0.24,0.00,0.15,-0.20,11.06,100.0,-85
4360,29.135,17.98,0.29,0.05,0.15,-0.24,11.06,100.0,-85
4361,29.219,19.43,0.39,-0.05,0.24,-0.29,11.06,100.0,-85
4362,29.302,20.73,0.33,-0.05,0.15,-0.29,11.75,100.0,-77
4363,29.386,22.90,0.39,0.00,0.20,-0.34,11.75,100.0,-77
4364,29.469,24.66,0.40,-0.05,0.20,-0.34,11.75,100.0,-77
4365,29.553,24.66,0.44,-0.05,0.20,-0.39,11.06,100.0,-77
4366,29.637,26.02,0.44,-0.05,0.20,-0.39,11.06,100.0,-77
4367,29.720,27.21,0.32,-0.05,0.20,-0.24,11.06,100.0,-77
4368,29.804,28.14,0.38,-0.15,0.20,-0.29,11.75,100.0,-75
4369,29.888,29.59,0.24,-0.10,0.10,-0.20,11.75,100.0,-75
4370,29.971,30.78,0.34,-0.10,0.15,-0.29,11.75,100.0,-75
4371,30.055,30.78,0.37,-0.10,0.20,-0.29,11.06,100.0,-75
4372,30.139,31.63,0.40,-0.15,0.15,-0.34,11.06,100.0,-75
4373,30.222,32.36,0.32,-0.10,0.10,-0.29,11.06,100.0,-75
4374,30.306,33.03,0.36,-0.05,0.10,-0.34,11.75,100.0,-75
4375,30.390,33.68,0.34,-0.10,0.15,-0.29,11.75,100.0,-75
4376,30.473,34.20,0.39,-0.10,0.15,-0.34,11.75,100.0,-75
4377,30.557,34.20,0.37,-0.10,0.10,-0.34,11.08,100.0,-75
4378,30.641,34.59,0.41,-0.05,0.10,-0.39,11.10,100.0,-75
4379,30.725,35.01,0.33,-0.05,0.15,-0.29,11.13,100.0,-75
4380,30.825,35.23,0.38,-0.05,0.15,-0.34,11.82,100.0,-75
4381,30.925,35.11,0.31,0.00,0.10,-0.29,11.82,100.0,-75
4382,31.025,35.09,0.36,-0.05,0.20,-0.29,11.82,100.0,-75
4383,31.126,35.09,0.39,0.00,0.20,-0.34,11.10,100.0,-75
4384,31.226,34.93,0.38,-0.05,0.15,-0.34,11.08,100.0,-75
4385,31.326,34.90,0.38,-0.05,0.15,-0.34,11.06,100.0,-75
4386,31.410,34.94,0.33,-0.05,0.15,-0.29,11.75,100.0,-73
4387,31.494,34.12,0.24,-0.10,0.10,-0.20,11.75,100.0,-73
4388,31.577,33.48,0.34,-0.10,0.15,-0.29,11.75,100.0,-73
4389,31.661,33.48,0.30,-0.10,0.15,-0.24,11.06,100.0,-73
4390,31.745,32.92,0.28,-0.05,0.20,-0.20,11.06,100.0,-73
4391,31.828,32.45,0.33,-0.10,0.20,-0.24,11.06,100.0,-73
4392,31.912,32.05,0.33,0.00,0.15,-0.29,11.75,100.0,-69
4393,31.995,30.43,0.33,0.00,0.15,-0.29,11.75,100.0,-69
4394,32.079,29.26,0.32,-0.05,0.20,-0.24,11.75,100.0,-69
4395,32.163,29.26,0.40,-0.05,0.20,-0.34,11.06,100.0,-69
4396,32.246,28.28,0.33,0.00,0.15,-0.29,11.06,100.0,-69
4397,32.330,27.42,0.39,-0.05,0.24,-0.29,11.06,100.0,-69
4398,32.414,26.64,5.23,4.80,1.57,-1.37,11.75,100.0,-72
4399,32.497,25.14,24.87,23.37,-5.68,6.32,11.75,100.0,-72
4400,32.581,25.14,10.73,8.33,-3.43,5.83,11.75,100.0,-72
4401,32.665,23.49,5.53,5.29,-1.22,-1.03,11.08,100.0,-72
4402,32.748,22.21,3.22,1.96,1.57,2.01,11.10,100.0,-72
4403,32.832,22.21,1.73,1.37,-0.88,0.59,11.13,100.0,-72
4404,32.932,21.22,6.32,-2.20,-5.83,1.03,11.82,100.0,-71
4405,33.032,20.05,8.31,-0.34,-8.13,1.67,11.82,100.0,-71
4406,33.133,20.05,4.21,-0.88,-3.72,1.76,11.82,100.0,-71
4407,33.233,19.19,2.91,-0.98,-1.91,1.96,11.10,100.0,-71
4408,33.333,18.50,2.70,-1.18,-1.62,1.81,11.08,100.0,-71
4409,33.434,17.82,2.35,-1.13,-1.76,1.08,11.06,100.0,-71
4410,33.517,17.33,3.85,1.81,-2.30,-2.50,11.75,100.0,-74
4411,33.601,16.59,2.49,1.32,-2.11,0.15,11.75,100.0,-74
4412,33.685,15.92,1.16,0.74,-0.44,-0.78,11.75,100.0,-74
4413,33.768,15.92,1.33,0.15,0.98,0.88,11.06,100.0,-74
4414,33.852,15.40,1.68,0.24,1.67,0.05,11.06,100.0,-74
4415,33.936,15.01,1.98,0.54,1.86,-0.39,11.06,100.0,-74
4416,34.019,14.77,0.31,-0.29,0.00,-0.10,11.75,100.0,-69
4417,34.103,14.20,0.38,-0.34,0.05,-0.15,11.75,100.0,-69
4418,34.186,13.72,0.39,-0.24,0.10,-0.29,11.75,100.0,-69
4419,34.270,13.72,0.34,-0.29,0.10,-0.15,11.06,100.0,-69
4420,34.354,13.29,0.31,-0.24,0.00,-0.20,11.06,100.0,-69
4421,34.437,13.02,0.32,-0.24,-0.05,0.20,11.06,100.0,-69
4422,34.521,12.92,0.66,-0.59,0.05,0.29,11.75,100.0,-65
4423,34.605,12.19,0.95,-0.69,-0.15,0.64,11.75,100.0,-65
4424,34.688,11.69,0.62,-0.59,-0.15,-0.15,11.75,100.0,-65
4425,34.772,11.69,0.82,-0.59,-0.29,-0.49,11.08,100.0,-65
4426,34.855,11.28,1.14,-0.49,-0.54,-0.88,11.10,100.0,-65
4427,34.939,10.88,2.70,0.05,0.00,-2.70,11.12,100.0,-65
4428,35.023,10.67,2.23,1.72,0.54,-1.32,11.84,100.0,-68
4429,35.106,9.98,1.83,1.47,0.34,-1.03,11.87,100.0,-68
4430,35.190,9.41,1.51,1.18,-0.15,-0.93,11.89,100.0,-68
4431,35.274,9.41,1.41,1.13,-0.34,-0.78,11.19,100.0,-68
4432,35.357,8.95,1.27,1.03,-0.74,-0.10,11.19,100.0,-68
4433,35.441,8.62,1.29,0.98,-0.83,-0.10,11.19,100.0,-68
4434,35.541,8.32,0.80,0.54,0.00,-0.59,11.86,100.0,-68
4435,35.642,7.82,0.77,0.34,-0.05,-0.69,11.84,100.0,-68
4436,35.742,7.39,0.55,0.24,0.05,-0.49,11.82,100.0,-68
4437,35.842,7.39,0.61,0.24,0.44,-0.34,11.10,100.0,-68
4438,35.942,7.04,0.51,0.15,0.34,-0.34,11.08,100.0,-68
4439,36.043,6.80,0.43,0.10,0.24,-0.34,11.06,100.0,-68
4440,36.126,6.65,1.20,0.83,0.74,-0.44,11.75,100.0,-68
4441,36.210,5.85,1.28,0.83,0.83,-0.49,11.75,100.0,-68
4442,36.294,5.26,1.45,0.88,0.88,-0.74,11.75,100.0,-68
4443,36.377,5.26,1.64,0.98,1.18,-0.59,11.06,100.0,-68
4444,36.461,4.70,1.69,0.78,1.13,-0.98,11.06,100.0,-68
4445,36.545,4.37,1.33,0.69,0.78,-0.83,11.06,100.0,-68
4446,36.628,4.09,0.95,0.88,0.20,-0.29,11.75,100.0,-91
4447,36.712,3.42,0.88,0.83,0.20,-0.20,11.75,100.0,-91
4448,36.795,2.93,0.74,0.74,0.10,-0.05,11.75,100.0,-91
4449,36.879,2.93,0.69,0.64,0.20,-0.20,11.08,100.0,-91
4450,36.963,2.60,0.94,0.49,0.59,-0.54,11.10,100.0,-91
4451,37.046,2.35,0.73,0.20,0.64,-0.29,11.12,100.0,-91
4452,37.130,2.26,0.78,0.74,-0.05,0.24,11.84,100.0,-105
4453,37.214,1.59,1.01,0.88,-0.39,0.29,11.86,100.0,-105
4454,37.297,1.04,1.52,1.08,0.00,1.08,11.89,100.0,-105
4455,37.381,1.04,4.89,4.36,-0.20,-2.20,11.19,100.0,-105
4456,37.464,0.63,0.59,-0.20,-0.15,-0.54,11.19,100.0,-105
4457,37.548,0.33,0.85,-0.15,-0.74,-0.39,11.19,100.0,-105
4458,37.648,0.13,0.77,-0.05,0.49,0.59,11.86,100.0,-107
4459,37.749,-0.15,0.73,0.00,0.49,0.54,11.84,100.0,-107
4460,37.849,-0.32,0.73,0.00,0.49,0.54,11.82,100.0,-107
4461,37.949,-0.32,0.73,0.00,0.49,0.54,11.10,100.0,-107
4462,38.049,-0.50,0.70,0.00,0.44,0.54,11.08,100.0,-107
4463,38.150,-0.60,0.74,-0.05,0.44,0.59,11.06,100.0,-107
4464,38.233,-0.63,0.70,0.00,0.44,0.54,11.75,100.0,-108
4465,38.317,-0.76,0.73,0.00,0.49,0.54,11.75,100.0,-108
4466,38.401,-0.84,0.77,0.00,0.49,0.59,11.75,100.0,-108
4467,38.484,-0.84,0.74,0.00,0.44,0.59,11.06,100.0,-108
4468,38.568,-0.94,0.77,0.00,0.49,0.59,11.06,100.0,-108
4469,38.651,-0.95,0.76,-0.05,0.54,0.54,11.06,100.0,-108
4470,38.735,-0.86,0.76,-0.05,0.54,0.54,11.75,100.0,-106
4471,38.819,-0.89,0.74,0.00,0.44,0.59,11.75,100.0,-106
4472,38.902,-0.86,0.76,0.00,0.54,0.54,11.75,100.0,-106
4473,38.986,-0.86,0.69,0.00,0.49,0.49,11.06,100.0,-106
4474,39.069,-0.87,0.80,0.00,0.49,0.64,11.06,100.0,-106
4475,39.153,-0.91,0.80,0.00,0.54,0.59,11.06,100.0,-106
4476,39.237,-0.78,0.77,0.00,0.49,0.59,11.75,100.0,-113
4477,39.320,-0.89,0.70,0.00,0.44,0.54,11.75,100.0,-113
4478,39.404,-0.90,0.70,0.00,0.44,0.54,11.75,100.0,-113
4479,39.488,-0.90,0.78,-0.05,0.44,0.64,11.08,100.0,-113
4480,39.571,-1.01,0.77,0.00,0.49,0.59,11.10,100.0,-113
4481,39.655,-1.01,0.73,0.00,0.49,0.54,11.12,100.0,-113
4482,39.755,-0.93,0.74,0.00,0.44,0.59,11.82,100.0,-106
4483,39.855,-0.92,0.73,0.00,0.49,0.54,11.82,100.0,-106
4484,39.956,-0.86,0.73,0.00,0.49,0.54,11.82,100.0,-106
4485,40.056,-0.86,0.77,0.00,0.49,0.59,11.10,100.0,-106
4486,40.156,-0.93,0.77,0.00,0.49,0.59,11.08,100.0,-106
4487,40.256,-0.96,0.76,-0.05,0.54,0.54,11.06,100.0,-106
4488,40.340,-0.84,0.73,0.00,0.49,0.54,11.75,100.0,-105
4489,40.424,-0.89,0.77,0.00,0.49,0.59,11.75,100.0,-105
4490,40.507,-0.93,0.73,0.00,0.49,0.54,11.75,100.0,-105
4491,40.591,-0.93,0.73,0.00,0.49,0.54,11.06,100.0,-105
4492,40.674,-0.98,0.73,0.00,0.49,0.54,11.06,100.0,-105
4493,40.758,-0.89,0.77,0.00,0.49,0.59,11.06,100.0,-105
4494,40.842,-0.86,0.83,0.00,0.54,0.64,11.75,100.0,-105
4495,40.925,-0.89,0.80,0.00,0.54,0.59,11.75,100.0,-105
4496,41.009,-0.93,0.80,0.00,0.49,0.64,11.75,100.0,-105
4497,41.093,-0.93,0.73,0.00,0.49,0.54,11.06,100.0,-105
4498,41.176,-1.02,0.80,0.00,0.49,0.64,11.06,100.0,-105
4499,41.260,-0.99,0.77,0.00,0.49,0.59,11.06,100.0,-105
4506,41.443,-0.99,0.77,-0.05,0.49,0.59,11.62,94.5,-106
4507,41.627,-0.99,0.77,-0.05,0.49,0.59,11.49,94.5,-106
4508,41.810,-0.99,0.73,0.00,0.49,0.54,11.36,94.5,-106
4509,41.994,-0.99,0.77,0.00,0.49,0.59,10.59,94.5,-106
4510,42.177,-0.92,0.70,0.00,0.44,0.54,10.50,94.5,-106
4511,42.360,-0.88,0.83,-0.05,0.59,0.59,10.40,94.5,-106
4512,42.444,-0.87,0.73,-0.05,0.49,0.54,11.07,94.8,-105
4513,42.528,-0.89,0.87,0.00,0.54,0.69,11.09,94.8,-105
4514,42.611,-0.90,0.84,-0.10,0.54,0.64,11.11,94.8,-105
4515,42.695,-0.90,0.77,0.00,0.49,0.59,10.46,94.8,-105
4516,42.779,-0.87,0.80,-0.05,0.54,0.59,10.46,94.8,-105
4517,42.862,-0.87,0.80,0.00,0.54,0.59,10.46,94.8,-105
4518,42.946,-0.84,0.73,0.00,0.49,0.54,11.11,95.1,-114
4519,43.029,-0.84,0.73,0.00,0.49,0.54,11.11,95.1,-114
4520,43.113,-0.85,0.77,0.00,0.49,0.59,11.11,95.1,-114
4521,43.197,-0.85,0.73,0.00,0.49,0.54,10.46,95.1,-114
4522,43.280,-0.87,0.76,-0.05,0.54,0.54,10.46,95.1,-114
4523,43.364,-0.94,0.81,-0.05,0.49,0.64,10.46,95.1,-114
4524,43.447,-0.93,0.73,-0.05,0.49,0.54,11.11,95.4,-101
4525,43.531,-0.91,0.76,0.00,0.54,0.54,11.11,95.4,-101
4526,43.615,-0.91,0.80,0.00,0.54,0.59,11.11,95.4,-101
4527,43.698,-0.91,0.77,0.00,0.49,0.59,10.46,95.4,-101
4528,43.782,-0.93,0.80,0.00,0.54,0.59,10.46,95.4,-101
4529,43.865,-0.95,0.80,0.00,0.59,0.54,10.46,95.4,-101
4530,43.949,-1.00,0.74,-0.05,0.44,0.59,11.11,95.7,-102
4531,44.033,-1.09,0.77,0.00,0.49,0.59,11.11,95.7,-102
4532,44.116,-1.13,0.76,0.00,0.54,0.54,11.11,95.7,-102
4533,44.200,-1.13,0.76,0.05,0.54,0.54,10.46,95.7,-102
4534,44.284,-1.14,0.76,-0.05,0.54,0.54,10.46,95.7,-102
4535,44.367,-1.09,0.77,-0.05,0.49,0.59,10.46,95.7,-102
4536,44.467,-0.98,0.73,-0.05,0.49,0.54,11.09,95.9,-109
4537,44.568,-1.10,0.77,0.00,0.49,0.59,11.07,95.9,-109
4538,44.668,-0.99,0.80,0.00,0.49,0.64,11.05,95.9,-109
4539,44.768,-0.99,0.77,0.00,0.49,0.59,10.40,95.9,-109
4540,44.868,-1.06,0.80,0.00,0.54,0.59,10.40,95.9,-109
4541,44.969,-1.03,0.73,0.00,0.49,0.54,10.40,95.9,-109
4542,45.052,-0.94,0.77,0.00,0.49,0.59,11.07,96.2,-114
4543,45.136,-0.88,0.73,0.00,0.49,0.54,11.09,96.2,-114
4544,45.220,-0.90,0.77,0.00,0.49,0.59,11.11,96.2,-114
4545,45.303,-0.90,0.77,0.00,0.49,0.59,10.46,96.2,-114
4546,45.387,-0.93,0.80,0.00,0.49,0.64,10.46,96.2,-114
4547,45.470,-0.93,0.76,0.00,0.54,0.54,10.46,96.2,-114
4548,45.554,-0.88,0.77,-0.05,0.49,0.59,11.12,96.4,-101
4549,45.638,-0.95,0.76,0.00,0.54,0.54,11.12,96.4,-101
4550,45.721,-0.98,0.69,0.00,0.49,0.49,11.12,96.4,-101
4551,45.805,-0.98,0.80,-0.05,0.54,0.59,10.46,96.4,-101
4552,45.888,-1.08,0.73,0.00,0.49,0.54,10.46,96.4,-101
4553,45.972,-1.05,0.76,-0.05,0.54,0.54,10.46,96.4,-101
4554,46.056,-0.94,0.80,0.00,0.54,0.59,11.12,96.6,-113
4555,46.139,-0.94,0.76,-0.05,0.54,0.54,11.12,96.6,-113
4556,46.223,-0.91,0.76,-0.05,0.54,0.54,11.12,96.6,-113
4557,46.307,-0.91,0.77,0.00,0.49,0.59,10.46,96.6,-113
4558,46.390,-0.96,0.80,0.00,0.54,0.59,10.46,96.6,-113
4559,46.474,-0.98,0.80,-0.05,0.59,0.54,10.46,96.6,-113
4560,46.574,-0.95,0.80,0.00,0.54,0.59,11.10,96.8,-101
4561,46.674,-0.95,0.76,0.00,0.54,0.54,11.08,96.8,-101
4562,46.775,-0.93,0.83,-0.05,0.59,0.59,11.06,96.8,-101
4563,46.875,-0.93,0.80,0.00,0.54,0.59,10.40,96.8,-101
4564,46.975,-0.98,0.80,0.00,0.54,0.59,10.40,96.8,-101
4565,47.075,-1.01,0.83,0.00,0.59,0.59,10.40,96.8,-101
4566,47.159,-1.01,0.70,0.00,0.44,0.54,11.08,97.0,-101
4567,47.243,-1.03,0.80,0.00,0.54,0.59,11.10,97.0,-101
4568,47.326,-1.03,0.74,-0.05,0.44,0.59,11.12,97.0,-101
4569,47.410,-1.03,0.69,0.00,0.49,0.49,10.46,97.0,-101
4570,47.493,-1.03,0.84,-0.05,0.54,0.64,10.46,97.0,-101
4571,47.577,-1.02,0.70,0.00,0.44,0.54,10.46,97.0,-101
4572,47.661,-0.96,0.73,0.00,0.54,0.49,11.12,97.2,-105
4573,47.744,-0.98,0.76,0.00,0.54,0.54,11.12,97.2,-105
4574,47.827,-1.06,0.73,0.00,0.54,0.49,11.12,97.2,-105
4575,47.911,-1.06,0.69,0.00,0.49,0.49,10.46,97.2,-105
4576,47.994,-1.08,0.76,0.00,0.54,0.54,10.46,97.2,-105
4577,48.078,-1.03,0.73,0.00,0.54,0.49,10.46,97.2,-105
4578,48.161,-0.98,0.76,-0.05,0.54,0.54,11.12,97.3,-101
4579,48.245,-1.00,0.80,-0.05,0.54,0.59,11.12,97.3,-101
4580,48.329,-1.04,0.80,0.00,0.54,0.59,11.12,97.3,-101
4581,48.412,-1.04,0.80,0.00,0.54,0.59,10.46,97.3,-101
4582,48.496,-1.09,0.73,0.00,0.49,0.54,10.46,97.3,-101
4583,48.579,-1.09,0.80,0.00,0.54,0.59,10.46,97.3,-101
4584,48.663,-1.02,0.76,-0.05,0.54,0.54,11.12,97.5,-100
4585,48.747,-0.96,0.76,0.00,0.54,0.54,11.12,97.5,-100
4586,48.831,-0.97,0.76,-0.05,0.54,0.54,11.12,97.5,-100
4587,48.914,-0.97,0.80,-0.05,0.54,0.59,10.48,97.5,-100
4588,48.998,-1.06,0.76,0.00,0.54,0.54,10.50,97.5,-100
4589,49.082,-1.05,0.80,0.00,0.54,0.59,10.52,97.5,-100
4590,49.182,-1.04,0.80,0.00,0.54,0.59,11.18,97.6,-101
4591,49.282,-1.03,0.76,-0.05,0.54,0.54,11.18,97.6,-101
4592,49.382,-1.10,0.80,0.05,0.54,0.59,11.18,97.6,-101
4593,49.482,-1.10,0.80,-0.05,0.54,0.59,10.50,97.6,-101
4594,49.582,-1.10,0.73,-0.05,0.49,0.54,10.48,97.6,-101
4595,49.682,-1.08,0.76,0.00,0.54,0.54,10.46,97.6,-101
4596,49.766,-1.05,0.73,0.00,0.49,0.54,11.12,97.8,-103
4597,49.849,-1.08,0.80,0.00,0.54,0.59,11.12,97.8,-103
4598,49.933,-1.09,0.77,0.00,0.49,0.59,11.12,97.8,-103
4599,50.017,-1.09,0.80,0.00,0.59,0.54,10.46,97.8,-103
4600,50.100,-1.19,0.80,0.00,0.54,0.59,10.46,97.8,-103
4601,50.184,-1.07,0.80,0.00,0.54,0.59,10.46,97.8,-103
4602,50.267,-1.04,0.76,0.00,0.54,0.54,11.12,97.9,-107
4603,50.351,-1.09,0.77,0.00,0.49,0.59,11.12,97.9,-107
4604,50.435,-1.06,0.76,-0.05,0.54,0.54,11.12,97.9,-107
4605,50.518,-1.06,0.73,0.00,0.49,0.54,10.58,97.9,-107
4606,50.602,-1.05,0.76,-0.05,0.54,0.54,10.70,97.9,-107
4607,50.686,-1.05,0.73,0.00,0.54,0.49,10.82,97.9,-107
4608,50.769,-0.90,0.76,0.00,0.54,0.54,11.62,98.0,-105
4609,50.853,-0.93,0.76,0.00,0.54,0.54,11.76,98.0,-105
4610,50.936,-0.95,0.80,0.00,0.54,0.59,11.89,98.0,-105
4611,51.020,-0.95,0.80,0.00,0.49,0.64,11.19,98.0,-105
4612,51.104,-0.90,0.76,0.00,0.54,0.54,11.19,98.0,-105
4613,51.187,-0.91,0.80,-0.05,0.54,0.59,11.19,98.0,-105
4614,51.287,-0.79,0.80,0.00,0.59,0.54,11.87,98.1,-121
4615,51.388,-0.81,0.83,0.00,0.54,0.64,11.85,98.1,-121
4616,51.488,-0.85,0.80,-0.05,0.54,0.59,11.83,98.1,-121
4617,51.588,-0.85,0.73,-0.05,0.54,0.49,11.11,98.1,-121
4618,51.688,-0.87,0.76,0.00,0.54,0.54,11.09,98.1,-121
4619,51.789,-0.90,0.76,0.00,0.54,0.54,11.07,98.1,-121
4620,51.872,-0.89,0.73,0.00,0.49,0.54,11.76,98.2,-107
4621,51.956,-0.95,0.76,0.00,0.54,0.54,11.76,98.2,-107
4622,52.039,-0.85,0.80,0.00,0.59,0.54,11.76,98.2,-107
4623,52.122,-0.85,0.77,0.00,0.49,0.59,11.07,98.2,-107
4624,52.206,-0.87,0.76,0.00,0.54,0.54,11.07,98.2,-107
4625,52.289,-0.88,0.73,0.00,0.49,0.54,11.07,98.2,-107
4626,52.373,-0.93,0.73,0.00,0.49,0.54,11.76,98.4,-106
4627,52.457,-0.98,0.77,0.00,0.59,0.49,11.76,98.4,-106
4628,52.540,-0.98,0.80,0.00,0.59,0.54,11.76,98.4,-106
4629,52.624,-0.98,0.76,0.00,0.54,0.54,11.07,98.4,-106
4630,52.707,-1.05,0.76,0.00,0.54,0.54,11.07,98.4,-106
4631,52.791,-1.02,0.76,0.00,0.54,0.54,11.07,98.4,-106
4632,52.875,-1.02,0.80,-0.05,0.54,0.59,11.76,98.4,-103
4633,52.958,-1.08,0.76,0.00,0.54,0.54,11.76,98.4,-103
4634,53.042,-0.98,0.77,-0.05,0.49,0.59,11.76,98.4,-103
4635,53.125,-0.98,0.77,0.00,0.59,0.49,11.09,98.4,-103
4636,53.209,-0.99,0.80,-0.05,0.54,0.59,11.11,98.4,-103
4637,53.293,-1.03,0.80,0.00,0.54,0.59,11.13,98.4,-103
4638,53.393,-1.02,0.73,0.00,0.49,0.54,11.83,98.5,-106
4639,53.493,-1.04,0.80,0.00,0.59,0.54,11.83,98.5,-106
4640,53.593,-1.04,0.76,0.00,0.54,0.54,11.83,98.5,-106
4641,53.694,-1.04,0.80,0.00,0.54,0.59,11.11,98.5,-106
4642,53.794,-1.01,0.80,-0.05,0.54,0.59,11.09,98.5,-106
4643,53.894,-0.89,0.76,-0.05,0.54,0.54,11.07,98.5,-106
4644,53.978,-0.87,0.76,-0.05,0.54,0.54,11.76,98.6,-104
4645,54.061,-0.94,0.80,0.00,0.59,0.54,11.76,98.6,-104
4646,54.145,-0.98,0.77,0.00,0.49,0.59,11.76,98.6,-104
4647,54.229,-0.98,0.80,0.00,0.59,0.54,11.07,98.6,-104
4648,54.312,-0.96,0.77,-0.05,0.49,0.59,11.07,98.6,-104
4649,54.396,-1.00,0.77,0.00,0.49,0.59,11.07,98.6,-104
4650,54.479,-0.94,0.80,-0.05,0.59,0.54,11.76,98.7,-103
4651,54.563,-1.00,0.77,0.00,0.49,0.59,11.76,98.7,-103
4652,54.647,-0.97,0.83,0.00,0.54,0.64,11.76,98.7,-103
4653,54.730,-0.97,0.83,0.00,0.54,0.64,11.07,98.7,-103
4654,54.814,-1.00,0.80,0.00,0.49,0.64,11.07,98.7,-103
4655,54.898,-0.98,0.76,-0.05,0.54,0.54,11.07,98.7,-103
4656,54.981,-0.96,0.76,0.00,0.54,0.54,11.76,98.8,-107
4657,55.065,-0.92,0.77,0.00,0.49,0.59,11.76,98.8,-107
4658,55.148,-0.94,0.80,0.00,0.54,0.59,11.76,98.8,-107
4659,55.232,-0.94,0.80,0.00,0.54,0.59,11.09,98.8,-107
4660,55.316,-0.94,0.80,0.00,0.54,0.59,11.11,98.8,-107
4661,55.399,-0.92,0.80,0.00,0.59,0.54,11.13,98.8,-107
4662,55.483,-0.78,0.76,0.00,0.54,0.54,11.85,98.9,-99
4663,55.566,-0.81,0.77,0.00,0.59,0.49,11.87,98.9,-99
4664,55.650,-0.83,0.73,0.00,0.49,0.54,11.90,98.9,-99
4665,55.734,-0.83,0.77,0.00,0.49,0.59,11.20,98.9,-99
4666,55.817,-0.92,0.70,-0.05,0.54,0.44,11.20,98.9,-99
4667,55.901,-0.93,0.80,-0.05,0.59,0.54,11.20,98.9,-99
4668,56.001,-0.86,0.76,0.00,0.54,0.54,11.87,98.9,-106
4669,56.101,-0.86,0.73,-0.05,0.54,0.49,11.85,98.9,-106
4670,56.202,-0.89,0.73,-0.05,0.49,0.54,11.83,98.9,-106
4671,56.302,-0.89,0.73,-0.05,0.49,0.54,11.11,98.9,-106
4672,56.402,-0.98,0.80,0.00,0.59,0.54,11.09,98.9,-106
4673,56.503,-0.95,0.80,0.00,0.59,0.54,11.07,98.9,-106
4674,56.586,-0.88,0.80,0.00,0.54,0.59,11.76,99.0,-104
4675,56.670,-0.83,0.76,-0.05,0.54,0.54,11.76,99.0,-104
4676,56.753,-0.83,0.76,0.00,0.54,0.54,11.76,99.0,-104
4677,56.837,-0.83,0.76,0.00,0.54,0.54,11.07,99.0,-104
4678,56.921,-0.85,0.76,-0.05,0.54,0.54,11.07,99.0,-104
4679,57.004,-0.87,0.73,0.00,0.54,0.49,11.07,99.0,-104
4686,57.171,-1.05,0.80,0.00,0.59,0.54,11.65,93.6,-97
4687,57.338,-1.02,0.80,-0.05,0.54,0.59,11.54,93.6,-97
4688,57.505,-0.95,0.61,0.00,0.29,0.54,11.43,93.6,-97
4689,57.671,-0.95,0.80,-0.10,0.39,0.69,10.66,93.6,-97
4690,57.838,-0.96,0.70,-0.10,0.44,0.54,10.56,93.6,-97
4691,58.005,-0.96,0.66,0.00,0.49,0.44,10.46,93.6,-97
4692,58.105,-0.89,1.59,-1.08,1.13,0.29,11.10,94.0,-98
4693,58.205,-0.92,1.59,-0.93,1.27,0.20,11.08,94.0,-98
4694,58.305,-0.95,1.23,-0.74,0.98,0.10,11.06,94.0,-98
4695,58.405,-0.95,0.99,-0.74,0.64,0.20,10.41,94.0,-98
4696,58.505,-0.95,0.86,-0.69,0.49,0.15,10.41,94.0,-98
4697,58.606,-0.91,1.11,-0.83,0.74,0.05,10.41,94.0,-98
4698,58.689,-0.79,1.09,-0.88,0.54,-0.34,11.08,94.3,-89
4699,58.773,-0.74,1.32,-0.88,0.93,-0.29,11.10,94.3,-89
4700,58.856,-0.70,1.43,-0.78,1.18,-0.24,11.12,94.3,-89
4701,58.940,-0.70,1.48,-0.83,1.22,-0.10,10.46,94.3,-89
4702,59.024,-0.64,1.34,-0.78,1.08,-0.15,10.46,94.3,-89
4703,59.107,-0.54,1.16,-0.74,0.88,-0.20,10.46,94.3,-89
4710,59.274,-0.29,1.38,-0.54,1.27,0.00,11.02,89.5,-87
4711,59.441,-0.23,1.24,-0.49,1.13,0.20,10.92,89.5,-87
4712,59.608,-0.16,1.19,-0.59,1.03,0.05,10.82,89.5,-87
4713,59.774,-0.16,1.03,-0.44,0.93,0.00,10.10,89.5,-87
4714,59.941,-0.14,1.19,-0.39,1.13,0.00,10.01,89.5,-87
4715,60.108,-0.12,1.17,-0.44,1.08,0.05,9.92,89.5,-87
4716,60.208,-0.09,1.23,0.00,0.98,-0.74,10.53,90.1,-91
4717,60.309,-0.13,1.23,0.00,0.98,-0.74,10.51,90.1,-91
4718,60.409,-0.12,1.20,0.00,0.98,-0.69,10.49,90.1,-91
4719,60.509,-0.12,1.14,0.00,0.98,-0.59,9.86,90.1,-91
4720,60.609,-0.08,1.21,0.00,1.03,-0.64,9.84,90.1,-91
4721,60.710,-0.10,1.19,0.00,1.03,-0.59,9.82,90.1,-91
4722,60.793,-0.01,0.95,0.15,0.93,-0.10,10.44,90.7,-90
4723,60.877,0.04,0.92,0.15,0.88,-0.20,10.44,90.7,-90
4724,60.960,0.06,0.99,0.15,0.98,-0.05,10.44,90.7,-90
4725,61.044,0.06,1.19,0.15,1.18,-0.05,9.84,90.7,-90
4726,61.128,0.08,1.19,0.15,1.13,-0.34,9.86,90.7,-90
4727,61.211,0.05,1.19,0.20,1.13,-0.34,9.87,90.7,-90
4728,61.295,0.11,1.23,0.10,1.22,0.10,10.51,91.2,-90
4729,61.378,0.10,1.20,0.20,1.18,0.10,10.53,91.2,-90
4730,61.462,0.10,1.01,0.24,0.98,0.00,10.54,91.2,-90
4731,61.546,0.10,1.00,0.20,0.98,-0.05,9.92,91.2,-90
4732,61.629,0.13,1.01,0.24,0.98,-0.05,9.92,91.2,-90
4733,61.713,0.09,1.05,0.20,1.03,-0.05,9.92,91.2,-90
4734,61.797,0.12,0.86,0.20,0.83,0.05,10.54,91.7,-92
4735,61.880,0.18,0.79,0.29,0.74,-0.05,10.54,91.7,-92
4736,61.964,0.14,0.93,0.29,0.88,-0.10,10.54,91.7,-92
4737,62.047,0.14,1.01,0.24,0.98,-0.05,9.92,91.7,-92
4738,62.131,0.05,1.14,0.20,1.13,-0.05,9.92,91.7,-92
4739,62.215,0.01,1.15,0.24,1.13,-0.05,9.92,91.7,-92
4740,62.315,0.10,1.00,0.34,0.93,-0.10,10.53,92.2,-89
4741,62.415,0.07,0.91,0.34,0.83,-0.10,10.51,92.2,-89
4742,62.515,0.05,0.93,0.29,0.88,-0.05,10.49,92.2,-89
4743,62.616,0.05,1.02,0.29,0.98,-0.05,9.86,92.2,-89
4744,62.716,-0.01,1.07,0.29,1.03,0.00,9.84,92.2,-89
4745,62.816,-0.04,0.95,0.34,0.88,0.05,9.82,92.2,-89
4746,62.900,0.01,1.16,0.24,1.13,-0.10,10.44,92.7,-89
4747,62.983,0.04,1.32,0.05,1.32,-0.05,10.44,92.7,-89
4748,63.067,-0.02,1.28,0.15,1.18,-0.49,10.44,92.7,-89
4749,63.151,-0.02,1.05,0.20,0.93,-0.44,9.84,92.7,-89
4750,63.234,-0.02,1.16,0.05,1.03,-0.54,9.86,92.7,-89
4751,63.318,-0.05,1.23,0.05,1.13,-0.49,9.87,92.7,-89
4752,63.401,0.08,1.12,0.05,1.03,-0.44,10.51,93.1,-91
4753,63.485,0.05,1.17,0.05,1.13,-0.29,10.53,93.1,-91
4754,63.569,0.08,1.25,0.00,1.13,-0.54,10.54,93.1,-91
4755,63.652,0.08,1.12,0.05,1.03,-0.44,9.92,93.1,-91
4756,63.736,-0.03,1.32,0.10,1.18,-0.59,9.92,93.1,-91
4757,63.820,-0.06,1.37,0.24,1.13,-0.74,9.92,93.1,-91
4758,63.903,-0.01,1.32,0.05,1.13,-0.69,10.54,93.5,-88
4759,63.987,-0.05,1.46,0.10,1.22,-0.78,10.54,93.5,-88
4760,64.070,-0.06,1.61,0.15,1.37,-0.83,10.54,93.5,-88
4761,64.154,-0.06,1.66,0.15,1.37,-0.93,9.92,93.5,-88
4762,64.238,-0.09,1.52,-0.10,1.37,-0.64,9.92,93.5,-88
4763,64.321,-0.01,1.61,0.00,1.27,-0.98,9.92,93.5,-88
4764,64.421,0.03,1.81,-0.15,0.98,-1.52,10.53,93.9,-87
4765,64.522,0.05,1.15,0.24,0.93,-0.64,10.51,93.9,-87
4766,64.622,0.06,1.21,0.24,1.08,-0.49,10.49,93.9,-87
4767,64.722,0.06,1.26,0.10,1.18,-0.44,9.86,93.9,-87
4768,64.822,0.00,1.17,0.10,1.03,-0.54,9.84,93.9,-87
4769,64.923,0.08,1.13,0.15,0.98,-0.54,9.82,93.9,-87
4770,65.006,0.10,1.53,0.10,0.83,-1.27,10.44,94.2,-87
4771,65.090,0.05,1.43,0.00,0.74,-1.22,10.44,94.2,-87
4772,65.173,-0.01,1.33,-0.10,0.83,-1.03,10.44,94.2,-87
4773,65.257,-0.01,1.21,-0.05,0.64,-1.03,9.82,94.2,-87
4774,65.341,-0.02,1.26,-0.10,0.64,-1.08,9.82,94.2,-87
4775,65.424,0.00,1.43,0.00,0.39,-1.37,9.82,94.2,-87
4776,65.508,0.01,1.18,0.29,0.83,-0.78,10.44,94.6,-95
4777,65.591,-0.02,1.05,0.29,0.74,-0.69,10.44,94.6,-95
4778,65.675,-0.09,1.03,0.34,0.74,-0.64,10.44,94.6,-95
4779,65.759,-0.09,1.10,0.34,0.83,-0.64,9.84,94.6,-95
4780,65.842,-0.11,1.08,0.29,0.74,-0.74,9.86,94.6,-95
4781,65.926,-0.09,1.08,0.29,0.74,-0.74,9.87,94.6,-95
4782,66.009,-0.02,1.18,0.15,0.64,-0.98,10.51,94.9,-85
4783,66.093,-0.01,1.19,0.39,0.64,-0.93,10.53,94.9,-85
4784,66.176,-0.02,1.26,0.44,0.59,-1.03,10.54,94.9,-85
4785,66.260,-0.02,1.23,0.39,0.54,-1.03,9.92,94.9,-85
4786,66.343,-0.02,1.24,0.29,0.54,-1.08,9.92,94.9,-85
4787,66.427,-0.07,1.26,0.34,0.64,-1.03,9.92,94.9,-85
4788,66.510,-0.11,1.29,0.59,0.74,-0.88,10.54,95.2,-90
4789,66.594,-0.16,1.32,0.59,0.74,-0.93,10.54,95.2,-90
4790,66.677,-0.19,1.32,0.59,0.74,-0.93,10.54,95.2,-90
4791,66.761,-0.19,1.32,0.59,0.78,-0.88,10.01,95.2,-90
4792,66.845,-0.27,1.41,0.64,0.78,-0.98,10.10,95.2,-90
4793,66.928,-0.29,1.33,0.54,0.78,-0.93,10.19,95.2,-90
4794,67.029,-0.21,1.06,0.54,0.74,-0.54,10.90,95.5,-86
4795,67.129,-0.22,1.14,0.59,0.78,-0.59,10.98,95.5,-86
4796,67.229,-0.19,1.19,0.69,0.74,-0.64,11.06,95.5,-86
4797,67.329,-0.19,1.11,0.64,0.69,-0.59,10.41,95.5,-86
4798,67.430,-0.21,1.13,0.64,0.69,-0.64,10.41,95.5,-86
4799,67.530,-0.13,1.20,0.78,0.59,-0.69,10.41,95.5,-86
4800,67.613,-0.12,0.80,0.39,0.69,-0.15,11.08,95.7,-92
4801,67.697,-0.04,0.98,0.24,0.93,-0.20,11.10,95.7,-92
4802,67.781,-0.05,1.07,0.64,0.78,-0.34,11.12,95.7,-92
4803,67.864,-0.05,1.08,0.59,0.83,-0.34,10.46,95.7,-92
4804,67.948,-0.05,1.22,0.49,1.08,-0.29,10.46,95.7,-92
4805,68.032,-0.12,0.92,0.49,0.74,-0.24,10.46,95.7,-92
4806,68.115,-0.03,1.04,0.54,0.88,-0.15,11.12,96.0,-95
4807,68.199,-0.07,1.06,0.59,0.88,-0.05,11.12,96.0,-95
4808,68.282,-0.12,1.08,0.44,0.98,-0.10,11.12,96.0,-95
4809,68.366,-0.12,0.91,0.59,0.69,-0.10,10.56,96.0,-95
4810,68.450,-0.18,0.91,0.59,0.69,-0.10,10.66,96.0,-95
4811,68.533,-0.17,0.91,0.59,0.69,0.05,10.76,96.0,-95
4812,68.617,-0.02,0.62,0.54,0.29,0.05,11.54,96.2,-100
4813,68.700,-0.02,0.78,0.69,0.34,0.15,11.65,96.2,-100
4814,68.784,-0.02,0.81,0.78,0.20,0.10,11.76,96.2,-100
4815,68.868,-0.02,0.79,0.69,0.34,0.20,11.09,96.2,-100
4816,68.951,-0.05,0.77,0.74,0.20,0.15,11.11,96.2,-100
4817,69.035,-0.04,0.71,0.64,0.24,0.20,11.13,96.2,-100
4818,69.135,0.01,1.16,0.93,0.69,0.00,11.82,96.4,-91
4819,69.235,0.04,1.20,0.98,0.69,0.00,11.82,96.4,-91
4820,69.336,0.04,0.95,0.78,0.54,0.05,11.82,96.4,-91
4821,69.436,0.04,0.95,0.74,0.59,0.10,11.11,96.4,-91
4822,69.536,-0.01,0.83,0.69,0.39,0.24,11.09,96.4,-91
4823,69.636,-0.02,0.73,0.64,0.20,0.29,11.07,96.4,-91
4824,69.720,0.04,0.68,0.64,0.24,0.00,11.76,96.6,-100
4825,69.804,0.03,0.69,0.69,0.10,0.05,11.76,96.6,-100
4826,69.887,0.01,0.66,0.64,0.15,0.10,11.76,96.6,-100
4827,69.971,0.01,0.67,0.64,0.20,0.10,11.07,96.6,-100
4828,70.054,0.01,0.67,0.64,0.20,0.10,11.07,96.6,-100
4829,70.138,0.01,0.74,0.69,0.24,0.10,11.06,96.6,-100
4830,70.222,0.06,0.74,0.74,0.05,0.00,11.76,96.8,-90
4831,70.305,0.05,0.74,0.74,0.10,0.05,11.76,96.8,-90
4832,70.389,0.07,0.79,0.78,0.05,0.00,11.76,96.8,-90
4833,70.473,0.07,0.84,0.83,0.05,0.05,11.07,96.8,-90
4834,70.556,0.10,0.79,0.78,0.05,0.00,11.07,96.8,-90
4835,70.640,0.11,0.70,0.69,0.15,0.05,11.07,96.8,-90
4836,70.723,0.17,0.70,0.69,0.15,0.05,11.76,97.0,-95
4837,70.807,0.08,0.74,0.74,0.10,0.05,11.76,97.0,-95
4838,70.891,0.00,0.74,0.74,0.10,0.05,11.76,97.0,-95
4839,70.974,0.00,0.78,0.74,0.24,0.05,11.09,97.0,-95
4840,71.058,-0.03,0.75,0.74,0.15,0.05,11.11,97.0,-95
4841,71.141,-0.08,0.66,0.64,0.15,0.05,11.13,97.0,-95
4842,71.242,-0.02,0.67,0.64,0.20,0.10,11.82,97.2,-96
4843,71.342,-0.04,0.66,0.64,0.15,0.05,11.82,97.2,-96
4844,71.442,-0.02,0.72,0.69,0.20,0.05,11.82,97.2,-96
4845,71.542,-0.02,0.74,0.69,0.24,0.10,11.11,97.2,-96
4846,71.643,-0.06,0.79,0.74,0.29,0.05,11.09,97.2,-96
4847,71.743,-0.09,0.77,0.74,0.20,0.10,11.07,97.2,-96
4848,71.826,-0.11,0.66,0.64,0.15,0.05,11.76,97.4,-95
4849,71.910,-0.07,0.70,0.69,0.15,0.05,11.76,97.4,-95
4850,71.994,-0.06,0.72,0.69,0.20,0.05,11.76,97.4,-95
4851,72.077,-0.06,0.78,0.74,0.24,0.05,11.07,97.4,-95
4852,72.161,-0.08,0.72,0.69,0.20,0.10,11.07,97.4,-95
4853,72.244,-0.08,0.77,0.74,0.20,0.15,11.07,97.4,-95
4854,72.328,-0.03,0.72,0.69,0.20,0.05,11.76,97.5,-93
4855,72.412,-0.06,0.72,0.69,0.20,0.05,11.76,97.5,-93
4856,72.495,-0.09,0.72,0.69,0.20,0.05,11.76,97.5,-93
4857,72.579,-0.09,0.77,0.74,0.24,0.00,11.07,97.5,-93
4858,72.663,-0.11,0.75,0.74,0.15,0.00,11.07,97.5,-93
4859,72.746,-0.10,0.71,0.69,0.20,0.00,11.07,97.5,-93
4860,72.830,-0.05,0.71,0.69,0.20,0.00,11.76,97.7,-101
4861,72.913,-0.09,0.78,0.74,0.24,0.05,11.76,97.7,-101
4862,72.997,-0.03,0.72,0.69,0.20,0.05,11.76,97.7,-101
4863,73.081,-0.03,0.78,0.74,0.24,0.05,11.09,97.7,-101
4864,73.164,-0.06,0.73,0.69,0.24,0.05,11.11,97.7,-101
4865,73.248,-0.05,0.70,0.64,0.29,0.05,11.13,97.7,-101
4866,73.348,0.01,0.78,0.74,0.24,0.05,11.82,97.8,-103
4867,73.448,0.01,0.81,0.74,0.34,0.05,11.82,97.8,-103
4868,73.549,-0.02,0.79,0.74,0.29,0.05,11.82,97.8,-103
4869,73.649,-0.02,0.73,0.69,0.24,0.05,11.11,97.8,-103
4870,73.749,-0.10,0.75,0.69,0.29,0.05,11.09,97.8,-103
4871,73.849,-0.07,0.64,0.59,0.24,0.05,11.07,97.8,-103
4872,73.933,0.02,0.68,0.64,0.24,0.05,11.76,97.9,-99
4873,74.017,0.06,0.68,0.64,0.24,0.00,11.76,97.9,-99
4874,74.100,-0.02,0.73,0.69,0.24,0.05,11.76,97.9,-99
4875,74.184,-0.02,0.78,0.74,0.24,0.05,11.07,97.9,-99
4876,74.267,-0.03,0.84,0.78,0.29,0.10,11.07,97.9,-99
4877,74.351,-0.03,0.79,0.74,0.29,0.05,11.07,97.9,-99
4878,74.435,0.00,0.73,0.69,0.24,0.05,11.76,98.1,-91
4879,74.518,-0.02,0.66,0.59,0.29,0.05,11.76,98.1,-91
4880,74.602,0.01,0.78,0.74,0.24,0.05,11.76,98.1,-91
4881,74.685,0.01,0.79,0.74,0.29,0.05,11.06,98.1,-91
4882,74.769,-0.04,0.80,0.74,0.29,0.10,11.06,98.1,-91
4883,74.853,-0.05,0.70,0.64,0.29,0.05,11.06,98.1,-91
4884,74.936,0.06,0.75,0.69,0.29,0.05,11.76,98.2,-100
4885,75.020,-0.09,0.72,0.69,0.20,0.05,11.76,98.2,-100
4886,75.104,-0.05,0.72,0.69,0.20,0.05,11.76,98.2,-100
4887,75.187,-0.05,0.69,0.64,0.24,0.10,11.06,98.2,-100
4888,75.271,-0.06,0.72,0.69,0.20,0.05,11.06,98.2,-100
4889,75.354,-0.08,0.71,0.64,0.24,0.20,11.06,98.2,-100
4890,75.438,0.03,0.64,0.64,0.05,0.05,11.76,98.3,-97
4891,75.522,0.03,0.64,0.64,0.00,0.10,11.76,98.3,-97
4892,75.605,0.03,0.71,0.69,0.10,0.15,11.76,98.3,-97
4893,75.689,0.03,0.65,0.64,0.05,0.10,11.09,98.3,-97
4894,75.772,0.00,0.60,0.59,0.05,0.10,11.11,98.3,-97
4895,75.856,0.03,0.55,0.54,0.05,0.10,11.13,98.3,-97
4896,75.956,0.13,0.66,0.64,0.05,0.15,11.82,98.4,-93
4897,76.057,0.04,0.61,0.59,0.10,0.15,11.82,98.4,-93
4898,76.157,0.03,0.71,0.69,0.15,0.10,11.82,98.4,-93
4899,76.257,0.03,0.72,0.69,0.15,0.15,11.11,98.4,-93
4900,76.357,-0.01,0.72,0.69,0.10,0.20,11.09,98.4,-93
4901,76.458,0.05,0.57,0.54,0.15,0.10,11.06,98.4,-93
4902,76.541,0.07,0.60,0.49,0.24,0.24,11.76,98.5,-91
4903,76.625,0.04,0.62,0.54,0.24,0.20,11.76,98.5,-91
4904,76.708,0.09,0.67,0.59,0.24,0.20,11.76,98.5,-91
4905,76.792,0.09,0.61,0.54,0.20,0.20,11.06,98.5,-91
4906,76.876,0.04,0.63,0.54,0.29,0.15,11.06,98.5,-91
4907,76.959,0.07,0.50,0.44,0.20,0.15,11.06,98.5,-91
4908,77.043,0.04,0.72,0.69,0.20,0.10,11.76,98.6,-91
4909,77.126,0.05,0.75,0.69,0.20,0.24,11.76,98.6,-91
4910,77.210,0.02,0.62,0.54,0.29,0.10,11.76,98.6,-91
4911,77.294,0.02,0.64,0.59,0.24,0.10,11.06,98.6,-91
4912,77.377,-0.03,0.61,0.54,0.20,0.20,11.06,98.6,-91
4913,77.461,0.06,0.61,0.54,0.20,0.20,11.06,98.6,-91
4914,77.544,0.05,0.66,0.64,0.15,0.10,11.76,98.6,-91
4915,77.628,0.01,0.68,0.64,0.20,0.15,11.76,98.6,-91
4916,77.712,-0.01,0.62,0.59,0.15,0.15,11.76,98.6,-91
4917,77.795,-0.01,0.67,0.64,0.15,0.15,11.09,98.6,-91
4918,77.879,-0.01,0.61,0.54,0.15,0.24,11.11,98.6,-91
4919,77.963,-0.06,0.65,0.59,0.20,0.20,11.13,98.6,-91
4920,78.063,0.04,0.64,0.59,0.10,0.24,11.82,98.7,-90
4921,78.163,0.05,0.69,0.64,0.10,0.24,11.82,98.7,-90
4922,78.263,0.00,0.58,0.54,0.10,0.20,11.82,98.7,-90
4923,78.364,0.00,0.65,0.59,0.15,0.24,11.11,98.7,-90
4924,78.464,-0.05,0.63,0.59,0.10,0.20,11.09,98.7,-90
4925,78.564,-0.04,0.65,0.59,0.15,0.24,11.06,98.7,-90
4926,78.648,-0.01,0.65,0.64,0.05,0.10,11.76,98.8,-83
4927,78.731,0.00,0.66,0.64,0.05,0.15,11.76,98.8,-83
4928,78.815,0.09,0.69,0.69,0.00,0.10,11.76,98.8,-83
4929,78.898,0.09,0.70,0.69,0.05,0.15,11.06,98.8,-83
4930,78.982,0.09,0.70,0.69,0.00,0.15,11.06,98.8,-83
4931,79.066,0.07,0.67,0.64,0.05,0.20,11.06,98.8,-83
4932,79.149,0.14,0.64,0.64,0.05,0.05,11.76,98.9,-79
4933,79.233,0.05,0.64,0.64,0.05,0.05,11.76,98.9,-79
4934,79.316,0.11,0.65,0.64,0.05,0.10,11.76,98.9,-79
4935,79.400,0.11,0.60,0.59,0.05,0.10,11.06,98.9,-79
4936,79.484,0.01,0.64,0.64,0.05,0.05,11.06,98.9,-79
4937,79.567,-0.07,0.61,0.59,0.15,0.05,11.06,98.9,-79
4938,79.651,-0.01,0.73,0.69,0.24,0.00,11.76,98.9,-80
4939,79.734,0.03,0.72,0.69,0.20,0.05,11.76,98.9,-80
4940,79.818,0.07,0.70,0.69,0.15,0.00,11.76,98.9,-80
4941,79.902,0.07,0.75,0.74,0.15,0.00,11.09,98.9,-80
4942,79.985,0.02,0.66,0.64,0.15,-0.05,11.11,98.9,-80
4943,80.069,0.03,0.74,0.74,0.10,-0.05,11.13,98.9,-80
4944,80.169,0.11,0.75,0.74,0.15,0.00,11.82,99.0,-80
4945,80.269,0.09,0.64,0.64,0.10,0.00,11.82,99.0,-80
4946,80.370,0.06,0.70,0.69,0.10,-0.10,11.82,99.0,-80
4947,80.470,0.06,0.66,0.64,0.15,-0.05,11.11,99.0,-80
4948,80.570,0.03,0.69,0.69,0.10,-0.05,11.09,99.0,-80
4949,80.670,0.07,0.84,0.83,0.10,-0.10,11.06,99.0,-80
4956,80.837,0.15,0.88,0.88,0.05,0.00,11.64,93.6,-77
4957,81.004,0.10,0.88,0.88,0.05,-0.05,11.53,93.6,-77
4958,81.171,0.15,0.79,0.78,0.10,0.00,11.43,93.6,-77
4959,81.338,0.15,0.79,0.78,0.10,0.00,10.66,93.6,-77
4960,81.504,0.12,0.85,0.83,0.10,-0.15,10.56,93.6,-77
4961,81.671,0.22,0.94,0.93,0.10,-0.05,10.46,93.6,-77
4962,81.755,0.26,0.75,0.74,0.15,0.00,11.12,94.0,-77
4963,81.838,0.21,0.85,0.83,0.15,0.00,11.12,94.0,-77
4964,81.922,0.23,0.92,0.88,0.24,0.00,11.12,94.0,-77
4965,82.006,0.23,0.86,0.83,0.20,0.05,10.46,94.0,-77
4966,82.089,0.19,0.85,0.83,0.15,-0.10,10.46,94.0,-77
4967,82.173,0.24,0.74,0.74,0.10,-0.05,10.46,94.0,-77
4968,82.273,0.21,0.79,0.78,0.05,-0.05,11.10,94.3,-77
4969,82.373,0.23,0.89,0.88,0.10,-0.10,11.08,94.3,-77
4970,82.474,0.21,0.95,0.93,0.20,-0.05,11.06,94.3,-77
4971,82.574,0.21,0.91,0.88,0.20,-0.10,10.41,94.3,-77
4972,82.674,0.21,0.90,0.88,0.15,-0.10,10.41,94.3,-77
4973,82.774,0.25,0.94,0.93,0.05,-0.15,10.41,94.3,-77
4974,82.858,0.29,0.76,0.74,0.15,-0.15,11.08,94.7,-76
4975,82.941,0.32,0.76,0.74,0.15,-0.15,11.10,94.7,-76
4976,83.025,0.32,0.86,0.83,0.20,-0.05,11.12,94.7,-76
4977,83.109,0.32,0.92,0.88,0.24,-0.05,10.46,94.7,-76
4978,83.192,0.23,0.92,0.88,0.24,-0.05,10.46,94.7,-76
4979,83.276,0.22,0.93,0.88,0.29,-0.10,10.46,94.7,-76
4980,83.359,0.27,0.74,0.64,0.24,-0.29,11.12,95.0,-75
4981,83.443,0.29,0.75,0.69,0.20,-0.24,11.12,95.0,-75
4982,83.526,0.31,0.85,0.83,0.15,-0.10,11.12,95.0,-75
4983,83.610,0.31,0.85,0.83,0.10,-0.15,10.46,95.0,-75
4984,83.693,0.28,0.81,0.78,0.15,-0.15,10.46,95.0,-75
4985,83.777,0.29,0.86,0.83,0.20,-0.10,10.46,95.0,-75
4986,83.860,0.34,0.78,0.64,0.29,-0.34,11.12,95.3,-75
4987,83.944,0.32,0.74,0.64,0.24,-0.29,11.12,95.3,-75
4988,84.027,0.31,0.71,0.64,0.24,-0.20,11.12,95.3,-75
4989,84.111,0.31,0.74,0.69,0.20,-0.20,10.46,95.3,-75
4990,84.195,0.27,0.80,0.78,0.15,-0.10,10.46,95.3,-75
4991,84.278,0.22,0.81,0.78,0.20,-0.05,10.46,95.3,-75
4992,84.362,0.19,0.77,0.69,0.24,-0.24,11.12,95.5,-74
4993,84.446,0.21,0.75,0.64,0.34,-0.20,11.12,95.5,-74
4994,84.529,0.23,0.76,0.64,0.34,-0.24,11.12,95.5,-74
4995,84.613,0.23,0.84,0.64,0.39,-0.39,10.46,95.5,-74
4996,84.697,0.25,0.72,0.59,0.29,-0.29,10.46,95.5,-74
4997,84.781,0.27,0.77,0.69,0.24,-0.24,10.46,95.5,-74
4998,84.881,0.33,0.48,0.39,0.24,-0.15,11.10,95.8,-74
4999,84.981,0.32,0.53,0.39,0.29,-0.20,11.08,95.8,-74
5000,85.081,0.28,0.55,0.49,0.24,-0.05,11.06,95.8,-74
5001,85.182,0.28,0.62,0.59,0.20,0.00,10.41,95.8,-74
5002,85.282,0.27,0.77,0.69,0.34,-0.10,10.41,95.8,-74
5003,85.382,0.30,0.82,0.74,0.34,-0.10,10.41,95.8,-74
5004,85.466,0.29,0.77,0.74,0.24,0.00,11.08,96.0,-74
5005,85.549,0.24,0.78,0.74,0.24,-0.05,11.10,96.0,-74
5006,85.633,0.28,0.75,0.64,0.39,0.00,11.12,96.0,-74
5007,85.716,0.28,0.73,0.64,0.34,-0.10,10.46,96.0,-74
5008,85.800,0.32,0.62,0.54,0.29,-0.10,10.46,96.0,-74
5009,85.884,0.30,0.66,0.59,0.29,-0.05,10.46,96.0,-74
5010,85.967,0.34,0.82,0.69,0.44,0.00,11.12,96.3,-80
5011,86.051,0.36,0.71,0.59,0.39,-0.05,11.12,96.3,-80
5012,86.135,0.42,0.68,0.59,0.34,0.00,11.12,96.3,-80
5013,86.218,0.42,0.64,0.54,0.34,-0.05,10.46,96.3,-80
5014,86.302,0.41,0.67,0.54,0.39,0.00,10.46,96.3,-80
5015,86.385,0.34,0.63,0.49,0.39,-0.05,10.46,96.3,-80
5016,86.469,0.35,0.75,0.64,0.39,0.05,11.12,96.5,-76
5017,86.552,0.31,0.76,0.54,0.54,0.00,11.12,96.5,-76
5018,86.636,0.34,0.69,0.49,0.49,0.00,11.12,96.5,-76
5019,86.719,0.34,0.56,0.39,0.39,-0.10,10.46,96.5,-76
5020,86.803,0.32,0.60,0.44,0.39,-0.10,10.46,96.5,-76
5021,86.886,0.35,0.66,0.54,0.34,-0.15,10.46,96.5,-76
5022,86.986,0.47,0.75,0.64,0.39,-0.05,11.10,96.7,-70
5023,87.086,0.39,0.79,0.69,0.39,0.05,11.08,96.7,-70
5024,87.186,0.33,0.90,0.83,0.34,0.05,11.06,96.7,-70
5025,87.286,0.33,0.95,0.83,0.44,0.10,10.41,96.7,-70
5026,87.386,0.29,0.92,0.78,0.49,0.00,10.41,96.7,-70
5027,87.486,0.31,0.78,0.64,0.44,-0.05,10.41,96.7,-70
5028,87.570,0.38,0.86,0.74,0.44,-0.05,11.08,96.9,-69
5029,87.654,0.29,0.71,0.59,0.39,-0.05,11.10,96.9,-69
5030,87.737,0.34,0.72,0.64,0.34,0.00,11.12,96.9,-69
5031,87.821,0.34,0.79,0.69,0.39,0.05,10.47,96.9,-69
5032,87.904,0.34,0.88,0.78,0.39,0.00,10.47,96.9,-69
5033,87.988,0.34,0.89,0.74,0.49,-0.05,10.47,96.9,-69
5034,88.072,0.46,1.01,0.98,0.24,0.00,11.12,97.1,-69
5035,88.155,0.40,0.83,0.78,0.24,-0.15,11.12,97.1,-69
5036,88.239,0.37,0.81,0.69,0.39,-0.20,11.12,97.1,-69
5037,88.323,0.37,0.79,0.69,0.29,-0.24,10.47,97.1,-69
5038,88.406,0.33,0.84,0.78,0.29,-0.10,10.47,97.1,-69
5039,88.490,0.29,0.93,0.88,0.29,-0.10,10.47,97.1,-69
5040,88.573,0.34,0.90,0.78,0.44,-0.10,11.12,97.2,-64
5041,88.657,0.36,0.94,0.83,0.44,-0.05,11.12,97.2,-64
5042,88.741,0.38,0.86,0.78,0.34,-0.10,11.12,97.2,-64
5043,88.824,0.38,0.92,0.83,0.39,0.00,10.47,97.2,-64
5044,88.908,0.39,0.95,0.88,0.34,0.05,10.47,97.2,-64
5045,88.991,0.38,0.92,0.83,0.39,0.00,10.47,97.2,-64
5046,89.092,0.43,0.91,0.83,0.34,-0.10,11.10,97.4,-64
5047,89.192,0.40,1.01,0.88,0.39,-0.29,11.08,97.4,-64
5048,89.292,0.40,1.13,1.03,0.44,-0.15,11.06,97.4,-64
5049,89.392,0.40,1.10,1.03,0.34,-0.20,10.41,97.4,-64
5050,89.493,0.36,1.07,1.03,0.29,-0.05,10.41,97.4,-64
5051,89.593,0.34,1.01,0.98,0.24,-0.10,10.41,97.4,-64
5058,89.760,0.30,0.78,0.64,0.29,-0.34,10.98,92.2,-66
5059,89.926,0.28,0.84,0.69,0.29,-0.39,10.90,92.2,-66
5060,90.093,0.25,0.78,0.69,0.15,-0.34,10.82,92.2,-66
5061,90.260,0.25,0.87,0.74,0.24,-0.39,10.19,92.2,-66
5062,90.427,0.21,0.85,0.74,0.24,-0.34,10.19,92.2,-66
5063,90.594,0.30,0.86,0.78,0.24,-0.24,10.19,92.2,-66
5064,90.677,0.29,0.75,0.69,0.20,-0.24,10.92,92.7,-55
5065,90.761,0.32,0.74,0.69,0.15,-0.24,11.02,92.7,-55
5066,90.845,0.30,0.82,0.74,0.20,-0.29,11.12,92.7,-55
5067,90.928,0.30,0.71,0.64,0.20,-0.24,10.47,92.7,-55
5068,91.012,0.26,0.83,0.74,0.24,-0.29,10.47,92.7,-55
5069,91.095,0.29,0.83,0.74,0.20,-0.34,10.47,92.7,-55
5070,91.196,0.31,0.86,0.83,0.20,-0.10,11.10,93.1,-53
5071,91.296,0.24,0.89,0.83,0.29,-0.10,11.08,93.1,-53
5072,91.396,0.29,0.82,0.74,0.34,-0.15,11.06,93.1,-53
5073,91.496,0.29,0.80,0.69,0.39,-0.10,10.41,93.1,-53
5074,91.597,0.27,0.81,0.69,0.39,-0.20,10.41,93.1,-53
5075,91.697,0.25,0.76,0.69,0.29,-0.15,10.41,93.1,-53
5076,91.780,0.37,0.88,0.88,0.05,-0.05,11.08,93.5,-49
5077,91.864,0.25,0.91,0.88,0.10,-0.20,11.10,93.5,-49
5078,91.948,0.27,0.79,0.74,0.15,-0.24,11.12,93.5,-49
5079,92.031,0.27,0.77,0.74,0.15,-0.20,10.47,93.5,-49
5080,92.115,0.26,0.77,0.74,0.10,-0.20,10.47,93.5,-49
5081,92.199,0.22,0.85,0.78,0.15,-0.29,10.47,93.5,-49
5082,92.282,0.19,0.84,0.83,0.05,-0.05,11.12,93.9,-47
5083,92.366,0.25,0.84,0.83,0.05,-0.05,11.12,93.9,-47
5084,92.449,0.23,0.96,0.93,0.20,-0.10,11.12,93.9,-47
5085,92.533,0.23,1.00,0.98,0.20,-0.10,10.46,93.9,-47
5086,92.617,0.26,0.92,0.88,0.24,-0.10,10.46,93.9,-47
5087,92.700,0.26,0.90,0.83,0.29,-0.15,10.46,93.9,-47
5088,92.784,0.27,0.92,0.83,0.29,-0.24,11.12,94.2,-45
5089,92.867,0.25,0.81,0.74,0.24,-0.24,11.12,94.2,-45
5090,92.951,0.22,0.83,0.78,0.15,-0.24,11.12,94.2,-45
5091,93.035,0.22,0.72,0.69,0.10,-0.20,10.46,94.2,-45
5092,93.118,0.22,0.88,0.83,0.20,-0.20,10.46,94.2,-45
5093,93.202,0.27,0.93,0.83,0.29,-0.29,10.46,94.2,-45
5094,93.302,0.31,0.87,0.83,0.24,-0.05,11.10,94.6,-49
5095,93.402,0.31,0.81,0.78,0.20,-0.10,11.08,94.6,-49
5096,93.503,0.23,0.76,0.74,0.15,-0.15,11.06,94.6,-49
5097,93.603,0.23,0.76,0.74,0.10,-0.15,10.39,94.6,-49
5098,93.703,0.16,0.69,0.69,0.00,-0.05,10.37,94.6,-49
5099,93.803,0.09,0.64,0.64,0.00,0.00,10.35,94.6,-49
5100,93.887,0.20,0.95,0.88,0.29,-0.20,11.00,94.9,-51
5101,93.971,0.15,0.94,0.88,0.29,-0.15,11.00,94.9,-51
5102,94.054,0.18,0.81,0.78,0.20,-0.10,11.00,94.9,-51
5103,94.138,0.18,0.75,0.69,0.24,-0.20,10.37,94.9,-51
5104,94.221,0.18,0.73,0.64,0.29,-0.20,10.39,94.9,-51
5105,94.305,0.12,0.71,0.64,0.20,-0.24,10.41,94.9,-51
5106,94.389,0.17,0.72,0.69,0.20,0.10,11.08,95.2,-53
5107,94.472,0.16,0.72,0.69,0.20,0.05,11.10,95.2,-53
5108,94.556,0.19,0.72,0.69,0.20,0.05,11.12,95.2,-53
5109,94.639,0.19,0.71,0.69,0.20,0.00,10.46,95.2,-53
5110,94.723,0.14,0.81,0.78,0.20,0.05,10.46,95.2,-53
5111,94.807,0.16,0.82,0.78,0.24,-0.05,10.46,95.2,-53
5112,94.890,0.20,0.71,0.69,0.15,0.10,11.12,95.5,-53
5113,94.974,0.20,0.61,0.59,0.10,0.15,11.12,95.5,-53
5114,95.058,0.24,0.66,0.64,0.10,0.15,11.12,95.5,-53
5115,95.141,0.24,0.66,0.64,0.10,0.15,10.46,95.5,-53
5116,95.225,0.17,0.65,0.64,0.05,0.10,10.46,95.5,-53
5117,95.308,0.25,0.63,0.59,0.10,0.20,10.46,95.5,-53
5118,95.392,0.25,0.64,0.59,0.15,0.20,11.12,95.7,-53
5119,95.476,0.24,0.63,0.59,0.10,0.20,11.12,95.7,-53
5120,95.559,0.21,0.71,0.64,0.10,0.29,11.12,95.7,-53
5121,95.643,0.21,0.62,0.54,0.10,0.29,10.46,95.7,-53
5122,95.726,0.18,0.58,0.54,0.10,0.20,10.46,95.7,-53
5123,95.810,0.16,0.58,0.54,0.05,0.20,10.46,95.7,-53
5124,95.910,0.24,0.66,0.64,0.05,0.15,11.10,96.0,-53
5125,96.011,0.25,0.66,0.64,0.10,0.15,11.08,96.0,-53
5126,96.111,0.21,0.56,0.54,0.05,0.15,11.06,96.0,-53
5127,96.211,0.21,0.57,0.54,0.10,0.15,10.41,96.0,-53
5128,96.311,0.19,0.63,0.59,0.10,0.20,10.41,96.0,-53
5129,96.411,0.14,0.64,0.59,0.10,0.24,10.41,96.0,-53
5130,96.495,0.17,0.79,0.74,0.29,0.05,11.08,96.2,-52
5131,96.579,0.12,0.73,0.69,0.24,0.05,11.10,96.2,-52
5132,96.662,0.14,0.68,0.64,0.24,0.05,11.12,96.2,-52
5133,96.746,0.14,0.81,0.74,0.29,0.15,10.46,96.2,-52
5134,96.830,0.13,0.77,0.69,0.34,0.05,10.46,96.2,-52
5135,96.913,0.16,0.77,0.69,0.34,0.00,10.46,96.2,-52
5136,96.997,0.26,0.91,0.74,0.49,-0.20,11.12,96.4,-52
5137,97.080,0.20,0.93,0.74,0.54,-0.20,11.12,96.4,-52
5138,97.164,0.19,0.88,0.74,0.44,-0.20,11.12,96.4,-52
5139,97.248,0.19,0.84,0.74,0.39,-0.10,10.46,96.4,-52
5140,97.331,0.18,0.80,0.69,0.39,-0.10,10.46,96.4,-52
5141,97.415,0.26,0.80,0.69,0.39,-0.10,10.46,96.4,-52
5142,97.498,0.20,0.83,0.69,0.44,-0.15,11.12,96.6,-52
5143,97.582,0.22,0.87,0.74,0.44,-0.15,11.12,96.6,-52
5144,97.666,0.21,0.92,0.74,0.54,-0.15,11.12,96.6,-52
5145,97.749,0.21,0.84,0.69,0.49,-0.05,10.46,96.6,-52
5146,97.833,0.16,0.78,0.64,0.44,-0.10,10.46,96.6,-52
5147,97.916,0.18,0.89,0.69,0.54,-0.15,10.46,96.6,-52
5148,98.017,0.20,0.95,0.59,0.64,-0.39,11.10,96.8,-53
5149,98.117,0.09,1.02,0.49,0.78,-0.44,11.08,96.8,-53
5150,98.217,0.10,1.07,0.54,0.78,-0.49,11.06,96.8,-53
5151,98.317,0.10,1.14,0.64,0.74,-0.59,10.41,96.8,-53
5152,98.418,0.06,1.09,0.64,0.74,-0.49,10.41,96.8,-53
5153,98.518,0.09,0.98,0.54,0.69,-0.44,10.41,96.8,-53
5154,98.601,0.17,1.11,0.54,0.83,-0.49,11.08,97.0,-50
5155,98.685,0.15,1.09,0.54,0.74,-0.59,11.10,97.0,-50
5156,98.769,0.14,1.07,0.54,0.78,-0.49,11.12,97.0,-50
5157,98.852,0.14,1.09,0.54,0.78,-0.54,10.56,97.0,-50
5158,98.936,0.14,1.11,0.54,0.83,-0.49,10.66,97.0,-50
5159,99.019,0.15,1.00,0.59,0.74,-0.34,10.75,97.0,-50
5160,99.103,0.24,0.87,0.59,0.64,0.05,11.53,97.2,-51
5161,99.187,0.26,0.87,0.64,0.59,0.00,11.64,97.2,-51
5162,99.270,0.25,0.83,0.59,0.59,-0.05,11.76,97.2,-51
5163,99.354,0.25,0.90,0.64,0.64,-0.05,11.06,97.2,-51
5164,99.437,0.17,0.97,0.69,0.64,-0.24,11.06,97.2,-51
5165,99.521,0.15,0.87,0.59,0.64,-0.10,11.06,97.2,-51
5166,99.605,0.21,0.87,0.54,0.69,0.00,11.76,97.4,-51
5167,99.688,0.15,0.87,0.54,0.69,-0.05,11.76,97.4,-51
5168,99.772,0.18,0.94,0.64,0.69,-0.05,11.76,97.4,-51
5169,99.856,0.18,0.91,0.64,0.64,-0.10,11.09,97.4,-51
5170,99.939,0.26,0.97,0.64,0.69,-0.24,11.11,97.4,-51
5171,100.023,0.23,0.95,0.59,0.74,-0.15,11.13,97.4,-51
5172,100.123,0.26,0.99,0.49,0.74,-0.44,11.82,97.5,-52
5173,100.223,0.20,0.99,0.49,0.74,-0.44,11.82,97.5,-52
5174,100.324,0.19,1.06,0.59,0.74,-0.49,11.82,97.5,-52
5175,100.424,0.19,1.07,0.59,0.78,-0.44,11.11,97.5,-52
5176,100.524,0.17,1.25,0.64,0.93,-0.54,11.09,97.5,-52
5177,100.624,0.17,1.05,0.49,0.78,-0.49,11.06,97.5,-52
5178,100.708,0.15,1.14,0.49,0.88,-0.54,11.76,97.7,-52
5179,100.791,0.16,1.07,0.49,0.78,-0.54,11.76,97.7,-52
5180,100.875,0.18,1.05,0.44,0.78,-0.54,11.76,97.7,-52
5181,100.959,0.18,1.17,0.44,0.83,-0.69,11.06,97.7,-52
5182,101.042,0.14,1.03,0.39,0.78,-0.54,11.06,97.7,-52
5183,101.126,0.17,1.12,0.49,0.78,-0.64,11.06,97.7,-52
5184,101.209,0.20,1.09,0.39,0.83,-0.59,11.76,97.8,-51
5185,101.293,0.15,1.07,0.44,0.78,-0.59,11.76,97.8,-51
5186,101.377,0.13,1.15,0.44,0.88,-0.59,11.76,97.8,-51
5187,101.460,0.13,1.20,0.44,0.88,-0.69,11.06,97.8,-51
5188,101.544,0.19,1.15,0.54,0.83,-0.59,11.06,97.8,-51
5189,101.628,0.16,1.14,0.49,0.88,-0.54,11.06,97.8,-51
5190,101.711,0.18,1.01,0.54,0.78,-0.34,11.76,97.9,-50
5191,101.795,0.20,1.01,0.54,0.78,-0.34,11.76,97.9,-50
5192,101.878,0.19,1.07,0.54,0.83,-0.39,11.76,97.9,-50
5193,101.962,0.19,1.02,0.59,0.78,-0.29,11.09,97.9,-50
5194,102.046,0.16,1.09,0.59,0.83,-0.39,11.11,97.9,-50
5195,102.129,0.15,0.98,0.54,0.78,-0.24,11.13,97.9,-50
5196,102.229,0.23,0.90,0.39,0.74,-0.34,11.82,98.0,-51
5197,102.330,0.20,0.99,0.49,0.78,-0.34,11.82,98.0,-51
5198,102.430,0.09,1.10,0.49,0.88,-0.44,11.82,98.0,-51
5199,102.530,0.09,1.07,0.54,0.83,-0.39,11.11,98.0,-51
5200,102.630,0.10,1.17,0.59,0.93,-0.39,11.09,98.0,-51
5201,102.731,0.16,1.05,0.54,0.83,-0.34,11.06,98.0,-51
5202,102.814,0.18,0.89,0.49,0.74,-0.05,11.76,98.2,-49
5203,102.898,0.08,0.93,0.49,0.78,-0.05,11.76,98.2,-49
5204,102.981,0.02,0.89,0.54,0.69,-0.20,11.76,98.2,-49
5205,103.065,0.02,0.93,0.54,0.74,-0.20,11.06,98.2,-49
5206,103.149,0.02,0.96,0.54,0.78,-0.15,11.06,98.2,-49
5207,103.232,0.05,0.88,0.54,0.69,-0.10,11.06,98.2,-49
5208,103.316,0.23,0.69,0.34,0.59,-0.10,11.76,98.3,-48
5209,103.399,0.17,0.73,0.34,0.64,-0.05,11.76,98.3,-48
5210,103.483,0.18,0.77,0.34,0.69,-0.10,11.76,98.3,-48
5211,103.567,0.18,0.78,0.44,0.64,-0.10,11.06,98.3,-48
5212,103.650,0.15,0.78,0.44,0.64,-0.05,11.06,98.3,-48
5213,103.734,0.14,0.82,0.44,0.69,-0.10,11.06,98.3,-48
5214,103.818,0.13,1.13,0.20,0.88,0.69,11.76,98.4,-40
5215,103.901,-0.03,1.00,0.24,0.83,0.49,11.76,98.4,-40
5216,103.985,-0.07,1.26,-0.05,0.98,0.78,11.76,98.4,-40
5217,104.068,-0.07,0.64,0.05,0.64,0.00,11.06,98.4,-40
5218,104.152,-0.09,0.78,0.24,0.74,0.10,11.06,98.4,-40
5219,104.236,-0.04,0.87,0.39,0.64,0.44,11.06,98.4,-40
5220,104.319,0.01,0.75,0.29,0.69,0.10,11.76,98.5,-39
5221,104.403,-0.03,0.86,0.34,0.78,0.05,11.76,98.5,-39
5222,104.486,-0.13,1.15,0.59,0.98,-0.10,11.76,98.5,-39
5223,104.570,-0.13,1.06,0.49,0.93,-0.10,11.09,98.5,-39
5224,104.654,-0.25,0.89,0.49,0.74,-0.05,11.11,98.5,-39
5225,104.737,-0.25,0.86,0.44,0.74,0.05,11.13,98.5,-39
5226,104.837,-0.23,0.95,0.83,0.44,-0.10,11.82,98.6,-40
5227,104.938,-0.32,0.90,0.78,0.44,-0.10,11.82,98.6,-40
5228,105.038,-0.30,0.83,0.74,0.39,0.00,11.82,98.6,-40
5229,105.138,-0.30,0.90,0.83,0.34,-0.05,11.11,98.6,-40
5230,105.238,-0.27,0.78,0.74,0.24,-0.10,11.09,98.6,-40
5231,105.339,-0.35,0.78,0.74,0.24,-0.10,11.06,98.6,-40
5232,105.422,-0.31,0.61,0.54,0.20,-0.20,11.76,98.6,-38
5233,105.506,-0.32,0.79,0.74,0.15,-0.24,11.76,98.6,-38
5234,105.589,-0.44,0.75,0.69,0.20,-0.24,11.76,98.6,-38
5235,105.673,-0.44,0.76,0.74,0.15,-0.15,11.06,98.6,-38
5236,105.757,-0.52,0.76,0.74,0.10,-0.15,11.06,98.6,-38
5237,105.840,-0.43,0.66,0.64,0.15,-0.10,11.06,98.6,-38
5238,105.924,-0.35,1.02,0.98,0.29,0.00,11.76,98.7,-38
5239,106.007,-0.41,1.10,1.08,0.20,-0.05,11.76,98.7,-38
5240,106.091,-0.45,1.04,1.03,0.15,-0.05,11.76,98.7,-38
5241,106.175,-0.45,0.81,0.78,0.20,-0.05,11.06,98.7,-38
5242,106.258,-0.46,0.86,0.83,0.20,-0.05,11.06,98.7,-38
5243,106.342,-0.43,0.76,0.74,0.20,-0.05,11.06,98.7,-38
5244,106.425,-0.39,0.86,0.74,0.34,-0.29,11.76,98.8,-37
5245,106.509,-0.52,0.85,0.74,0.34,-0.24,11.76,98.8,-37
5246,106.593,-0.48,0.86,0.74,0.34,-0.29,11.76,98.8,-37
5247,106.676,-0.48,0.92,0.78,0.34,-0.34,11.09,98.8,-37
5248,106.760,-0.54,0.97,0.83,0.39,-0.29,11.11,98.8,-37
5249,106.844,-0.55,0.92,0.78,0.44,-0.20,11.13,98.8,-37
5250,106.944,-0.48,0.87,0.69,0.44,-0.29,11.82,98.9,-38
5251,107.044,-0.44,0.87,0.69,0.44,-0.29,11.82,98.9,-38
5252,107.144,-0.46,0.86,0.64,0.49,-0.29,11.82,98.9,-38
5253,107.244,-0.46,0.81,0.64,0.44,-0.24,11.11,98.9,-38
5254,107.345,-0.54,0.96,0.78,0.49,-0.24,11.09,98.9,-38
5255,107.445,-0.50,0.96,0.74,0.54,-0.29,11.06,98.9,-38
5256,107.529,-0.45,0.94,0.64,0.49,-0.49,11.76,98.9,-37
5257,107.612,-0.51,0.93,0.69,0.39,-0.49,11.76,98.9,-37
5258,107.696,-0.54,0.98,0.69,0.54,-0.44,11.76,98.9,-37
5259,107.779,-0.54,0.95,0.74,0.49,-0.34,11.06,98.9,-37
5260,107.863,-0.52,1.02,0.74,0.64,-0.29,11.06,98.9,-37
5261,107.947,-0.51,1.02,0.78,0.49,-0.44,11.06,98.9,-37
5262,108.030,-0.42,1.01,0.78,0.54,-0.34,11.76,99.0,-39
5263,108.114,-0.49,1.00,0.78,0.54,-0.29,11.76,99.0,-39
5264,108.197,-0.49,1.01,0.78,0.54,-0.34,11.76,99.0,-39
5265,108.281,-0.49,0.97,0.74,0.49,-0.39,11.06,99.0,-39
5266,108.365,-0.53,0.97,0.78,0.49,-0.29,11.06,99.0,-39
5267,108.448,-0.48,0.93,0.69,0.49,-0.39,11.06,99.0,-39
5268,108.532,-0.36,0.89,0.74,0.44,-0.24,11.76,99.1,-37
5269,108.615,-0.44,0.90,0.74,0.49,-0.15,11.76,99.1,-37
5270,108.699,-0.46,0.82,0.69,0.44,-0.05,11.76,99.1,-37
5271,108.783,-0.46,0.85,0.69,0.49,-0.10,11.09,99.1,-37
5272,108.866,-0.49,0.82,0.69,0.44,-0.10,11.11,99.1,-37
5273,108.950,-0.50,0.83,0.69,0.44,-0.15,11.13,99.1,-37
5274,109.050,-0.47,0.86,0.74,0.44,-0.05,11.82,99.1,-38
5275,109.150,-0.60,0.82,0.69,0.44,-0.10,11.82,99.1,-38
5276,109.251,-0.57,0.86,0.69,0.49,-0.15,11.82,99.1,-38
5277,109.351,-0.57,0.90,0.74,0.49,-0.15,11.11,99.1,-38
5278,109.451,-0.59,0.82,0.69,0.44,-0.05,11.09,99.1,-38
5279,109.551,-0.54,0.89,0.74,0.49,-0.10,11.06,99.1,-38
5280,109.635,-0.46,0.82,0.69,0.44,-0.05,11.76,99.2,-38
5281,109.719,-0.48,0.92,0.78,0.49,0.00,11.76,99.2,-38
5282,109.802,-0.50,0.86,0.74,0.44,-0.05,11.76,99.2,-38
5283,109.886,-0.50,0.84,0.74,0.39,-0.10,11.06,99.2,-38
5284,109.969,-0.53,0.82,0.69,0.44,-0.05,11.06,99.2,-38
5285,110.053,-0.44,0.73,0.64,0.34,-0.10,11.06,99.2,-38
5286,110.137,-0.40,0.84,0.78,0.29,-0.10,11.76,99.2,-38
5287,110.220,-0.49,0.84,0.78,0.29,-0.10,11.76,99.2,-38
5288,110.304,-0.56,0.84,0.78,0.29,-0.05,11.76,99.2,-38
5289,110.387,-0.56,0.78,0.74,0.24,-0.10,11.06,99.2,-38
5290,110.471,-0.47,0.81,0.74,0.29,-0.15,11.06,99.2,-38
5291,110.555,-0.40,0.86,0.78,0.29,-0.20,11.06,99.2,-38
5292,110.638,-0.29,0.86,0.78,0.29,-0.20,11.76,99.3,-39
5293,110.722,-0.32,0.81,0.78,0.20,-0.10,11.76,99.3,-39
5294,110.806,-0.31,0.87,0.78,0.29,-0.24,11.76,99.3,-39
5295,110.889,-0.31,0.92,0.83,0.29,-0.24,11.09,99.3,-39
5296,110.973,-0.34,0.83,0.74,0.34,-0.20,11.11,99.3,-39
5297,111.056,-0.31,0.85,0.78,0.29,-0.15,11.13,99.3,-39
5298,111.157,-0.26,0.70,0.64,0.29,-0.05,11.82,99.3,-41
5299,111.257,-0.26,0.77,0.74,0.24,0.00,11.82,99.3,-41
5300,111.357,-0.22,0.75,0.69,0.29,0.00,11.82,99.3,-41
5301,111.457,-0.22,0.73,0.69,0.24,-0.05,11.11,99.3,-41
5302,111.558,-0.32,0.74,0.69,0.24,-0.10,11.09,99.3,-41
5303,111.658,-0.31,0.66,0.59,0.29,-0.05,11.06,99.3,-41
5304,111.742,-0.18,0.75,0.69,0.29,0.00,11.76,99.3,-40
5305,111.825,-0.20,0.77,0.74,0.24,0.00,11.76,99.3,-40
5306,111.909,-0.24,0.73,0.69,0.24,0.00,11.76,99.3,-40
5307,111.992,-0.24,0.73,0.69,0.24,0.00,11.06,99.3,-40
5308,112.076,-0.34,0.75,0.69,0.29,0.00,11.06,99.3,-40
5309,112.160,-0.38,0.82,0.78,0.24,0.00,11.06,99.3,-40
5310,112.243,-0.37,0.77,0.74,0.24,0.00,11.76,99.4,-40
5311,112.327,-0.39,0.77,0.74,0.24,0.00,11.76,99.4,-40
5312,112.410,-0.46,0.75,0.69,0.29,0.05,11.76,99.4,-40
5313,112.494,-0.46,0.77,0.74,0.24,0.00,11.06,99.4,-40
5314,112.578,-0.47,0.81,0.74,0.34,0.00,11.06,99.4,-40
5315,112.661,-0.52,0.79,0.74,0.29,0.05,11.06,99.4,-40
5316,112.745,-0.53,0.81,0.74,0.34,0.05,11.76,99.4,-40
5317,112.829,-0.60,0.77,0.69,0.34,0.05,11.76,99.4,-40
5318,112.912,-0.57,0.73,0.69,0.24,0.05,11.76,99.4,-40
5319,112.996,-0.57,0.80,0.74,0.29,0.10,11.06,99.4,-40
5320,113.079,-0.55,0.77,0.69,0.34,0.00,11.06,99.4,-40
5321,113.163,-0.55,0.75,0.69,0.29,0.00,11.06,99.4,-40
5322,113.247,-0.43,0.68,0.64,0.24,0.05,11.76,99.5,-40
5323,113.330,-0.48,0.75,0.69,0.29,0.00,11.76,99.5,-40
5324,113.414,-0.41,0.78,0.74,0.24,0.05,11.76,99.5,-40
5325,113.497,-0.41,0.79,0.74,0.29,0.05,11.09,99.5,-40
5326,113.581,-0.45,0.77,0.74,0.20,0.10,11.11,99.5,-40
5327,113.665,-0.52,0.74,0.69,0.24,0.10,11.13,99.5,-40
5328,113.765,-0.42,0.75,0.69,0.29,0.05,11.82,99.5,-39
5329,113.865,-0.44,0.73,0.69,0.24,0.05,11.82,99.5,-39
5330,113.965,-0.49,0.73,0.69,0.24,0.00,11.82,99.5,-39
5331,114.066,-0.49,0.76,0.69,0.29,0.15,11.11,99.5,-39
5332,114.166,-0.52,0.69,0.64,0.24,0.10,11.09,99.5,-39
5333,114.266,-0.51,0.68,0.59,0.34,0.05,11.06,99.5,-39
5334,114.350,-0.50,0.70,0.64,0.29,0.00,11.76,99.5,-40
5335,114.433,-0.50,0.75,0.69,0.29,0.05,11.76,99.5,-40
5336,114.517,-0.46,0.70,0.64,0.29,0.05,11.76,99.5,-40
5337,114.601,-0.46,0.81,0.74,0.34,0.00,11.06,99.5,-40
5338,114.684,-0.50,0.73,0.69,0.24,0.00,11.06,99.5,-40
5339,114.768,-0.51,0.70,0.64,0.29,0.05,11.06,99.5,-40
5340,114.851,-0.45,0.74,0.69,0.24,0.10,11.76,99.5,-40
5341,114.935,-0.44,0.78,0.74,0.24,0.05,11.76,99.5,-40
5342,115.019,-0.40,0.73,0.69,0.24,0.05,11.76,99.5,-40
5343,115.102,-0.40,0.70,0.64,0.29,0.00,11.06,99.5,-40
5344,115.186,-0.44,0.73,0.69,0.24,0.05,11.06,99.5,-40
5345,115.269,-0.48,0.68,0.64,0.24,0.00,11.06,99.5,-40
5346,115.353,-0.49,0.73,0.69,0.24,0.05,11.76,99.6,-41
5347,115.437,-0.47,0.73,0.69,0.24,0.05,11.76,99.6,-41
5348,115.520,-0.47,0.75,0.69,0.29,0.00,11.76,99.6,-41
5349,115.604,-0.47,0.77,0.74,0.24,0.00,11.09,99.6,-41
5350,115.687,-0.49,0.74,0.69,0.20,0.20,11.11,99.6,-41
5351,115.771,-0.50,0.75,0.69,0.29,0.05,11.13,99.6,-41
5352,115.871,-0.37,0.75,0.69,0.29,0.00,11.82,99.6,-41
5353,115.972,-0.42,0.76,0.74,0.20,0.05,11.82,99.6,-41
5354,116.072,-0.38,0.78,0.74,0.24,0.05,11.82,99.6,-41
5355,116.172,-0.38,0.77,0.74,0.20,0.15,11.11,99.6,-41
5356,116.272,-0.46,0.75,0.69,0.29,0.05,11.09,99.6,-41
5357,116.373,-0.41,0.75,0.69,0.29,0.00,11.06,99.6,-41
5358,116.456,-0.40,0.73,0.69,0.24,0.05,11.76,99.6,-40
5359,116.540,-0.52,0.72,0.69,0.20,0.05,11.76,99.6,-40
5360,116.623,-0.47,0.75,0.69,0.29,0.05,11.76,99.6,-40
5361,116.707,-0.47,0.75,0.69,0.29,0.05,11.06,99.6,-40
5362,116.791,-0.56,0.72,0.69,0.20,0.05,11.06,99.6,-40
5363,116.874,-0.51,0.77,0.74,0.24,0.00,11.06,99.6,-40
5364,116.958,-0.44,0.68,0.64,0.24,0.05,11.76,99.6,-40
5365,117.041,-0.53,0.72,0.69,0.20,0.05,11.76,99.6,-40
5366,117.125,-0.52,0.73,0.69,0.24,0.05,11.76,99.6,-40
5367,117.209,-0.52,0.71,0.69,0.20,0.00,11.06,99.6,-40
5368,117.292,-0.57,0.73,0.69,0.24,0.05,11.06,99.6,-40
5369,117.376,-0.53,0.73,0.69,0.24,0.00,11.06,99.6,-40
5370,117.459,-0.57,0.73,0.69,0.24,0.05,11.76,99.7,-40
5371,117.543,-0.59,0.71,0.69,0.20,0.00,11.76,99.7,-40
5372,117.627,-0.59,0.75,0.69,0.29,0.05,11.76,99.7,-40
5373,117.710,-0.59,0.78,0.74,0.24,0.05,11.09,99.7,-40
5374,117.794,-0.57,0.74,0.69,0.24,0.10,11.11,99.7,-40
5375,117.877,-0.63,0.72,0.69,0.20,0.05,11.13,99.7,-40
5376,117.978,-0.47,0.78,0.74,0.24,0.10,11.82,99.7,-42
5377,118.078,-0.47,0.69,0.64,0.24,0.10,11.82,99.7,-42
5378,118.178,-0.50,0.78,0.74,0.24,0.05,11.82,99.7,-42
5379,118.278,-0.50,0.72,0.69,0.20,0.05,11.11,99.7,-42
5380,118.379,-0.58,0.76,0.74,0.20,0.05,11.09,99.7,-42
5381,118.479,-0.60,0.76,0.74,0.20,0.05,11.06,99.7,-42
5382,118.563,-0.46,0.53,0.44,0.00,0.29,11.76,99.7,-47
5383,118.646,-0.52,0.56,0.44,0.00,0.34,11.76,99.7,-47
5384,118.730,-0.50,0.53,0.44,0.00,0.29,11.76,99.7,-47
5385,118.813,-0.50,0.52,0.39,-0.05,0.34,11.06,99.7,-47
5386,118.897,-0.50,0.59,0.39,-0.05,0.44,11.06,99.7,-47
5387,118.981,-0.43,0.62,0.34,-0.15,0.49,11.06,99.7,-47
5388,119.064,-0.44,0.46,0.10,-0.10,0.44,11.76,99.7,-45
5389,119.148,-0.54,0.56,0.10,-0.10,0.54,11.76,99.7,-45
5390,119.232,-0.53,0.51,0.10,-0.10,0.49,11.76,99.7,-45
5391,119.315,-0.53,0.49,0.20,-0.10,0.44,11.06,99.7,-45
5392,119.399,-0.63,0.52,0.10,-0.15,0.49,11.06,99.7,-45
5393,119.482,-0.53,0.46,0.10,-0.10,0.44,11.06,99.7,-45
5394,119.566,-0.42,0.45,0.10,-0.05,0.44,11.76,99.7,-49
5395,119.650,-0.43,0.52,0.15,-0.10,0.49,11.76,99.7,-49
5396,119.733,-0.46,0.61,0.15,-0.05,0.59,11.76,99.7,-49
5397,119.817,-0.46,0.57,0.15,-0.10,0.54,11.09,99.7,-49
5398,119.900,-0.51,0.57,0.10,-0.15,0.54,11.11,99.7,-49
5399,119.984,-0.56,0.51,0.15,-0.05,0.49,11.13,99.7,-49
5400,120.068,-0.49,0.50,0.05,-0.05,0.49,11.85,99.7,-49
5401,120.151,-0.51,0.51,0.10,-0.10,0.49,11.87,99.7,-49
5402,120.235,-0.48,0.51,0.10,-0.10,0.49,11.89,99.7,-49
5403,120.319,-0.48,0.57,0.10,-0.15,0.54,11.19,99.7,-49
5404,120.402,-0.50,0.56,0.10,-0.10,0.54,11.19,99.7,-49
5405,120.486,-0.53,0.57,0.10,-0.15,0.54,11.19,99.7,-49
5406,120.586,-0.44,0.60,0.10,-0.05,0.59,11.87,99.8,-42
5407,120.686,-0.43,0.60,0.05,-0.10,0.59,11.85,99.8,-42
5408,120.786,-0.44,0.61,0.10,-0.15,0.59,11.82,99.8,-42
5409,120.886,-0.44,0.51,0.10,-0.10,0.49,11.11,99.8,-42
5410,120.986,-0.38,0.50,0.10,-0.05,0.49,11.09,99.8,-42
5411,121.086,-0.42,0.50,0.10,-0.05,0.49,11.06,99.8,-42
5412,121.170,-0.40,0.73,0.69,0.05,0.24,11.76,99.8,-49
5413,121.254,-0.48,0.50,0.44,0.00,0.24,11.76,99.8,-49
5414,121.337,-0.47,0.59,0.24,0.05,0.54,11.76,99.8,-49
5415,121.421,-0.47,0.62,0.20,0.05,0.59,11.07,99.8,-49
5416,121.504,-0.49,1.49,0.10,1.03,1.08,11.07,99.8,-49
5417,121.588,-0.47,0.84,0.29,0.69,0.39,11.07,99.8,-49
5418,121.672,-0.41,0.69,0.10,0.05,0.69,11.76,99.8,-48
5419,121.755,-0.47,0.77,0.15,0.20,0.74,11.76,99.8,-48
5420,121.839,-0.43,0.65,0.10,0.34,0.54,11.76,99.8,-48
5421,121.923,-0.43,0.49,0.05,0.29,0.39,11.07,99.8,-48
5422,122.006,-0.46,0.73,0.00,0.49,0.54,11.07,99.8,-48
5423,122.090,-0.47,0.78,-0.05,0.64,0.44,11.07,99.8,-48
5424,122.173,-0.47,0.57,-0.05,0.49,0.29,11.76,99.8,-44
5425,122.257,-0.42,0.67,0.05,0.64,0.20,11.76,99.8,-44
5426,122.341,-0.40,0.79,0.00,0.74,0.29,11.76,99.8,-44
5427,122.424,-0.40,0.81,0.05,0.64,0.49,11.09,99.8,-44
5428,122.508,-0.40,0.97,0.34,0.54,0.74,11.11,99.8,-44
5429,122.591,-0.46,1.20,0.44,0.44,1.03,11.13,99.8,-44
5430,122.692,-0.48,0.66,0.34,0.54,0.15,11.82,99.8,-41
5431,122.792,-0.46,0.70,0.49,0.44,0.24,11.82,99.8,-41
5432,122.892,-0.39,0.89,0.54,0.59,0.39,11.82,99.8,-41
5433,122.992,-0.39,0.77,0.39,0.54,0.39,11.11,99.8,-41
5434,123.093,-0.40,0.56,0.34,0.39,0.20,11.09,99.8,-41
5435,123.193,-0.33,0.45,0.29,0.34,0.00,11.07,99.8,-41
5436,123.276,-0.30,0.79,0.44,0.59,-0.29,11.76,99.8,-41
5437,123.360,-0.30,0.94,0.49,0.78,-0.15,11.76,99.8,-41
5438,123.444,-0.34,1.08,0.74,0.78,-0.05,11.76,99.8,-41
5439,123.527,-0.34,1.04,0.74,0.74,0.00,11.07,99.8,-41
5440,123.611,-0.36,0.98,0.64,0.74,-0.10,11.07,99.8,-41
5441,123.694,-0.35,0.89,0.59,0.64,-0.20,11.07,99.8,-41
5442,123.778,-0.29,0.83,0.59,0.39,-0.44,11.76,99.8,-49
5443,123.862,-0.31,0.91,0.54,0.44,-0.59,11.76,99.8,-49
5444,123.945,-0.32,1.28,0.88,0.49,-0.78,11.76,99.8,-49
5445,124.029,-0.32,1.23,0.78,0.54,-0.78,11.07,99.8,-49
5446,124.112,-0.24,0.99,0.74,0.49,-0.44,11.07,99.8,-49
5447,124.196,-0.30,0.96,0.69,0.54,-0.39,11.07,99.8,-49
5448,124.280,-0.24,0.97,0.54,0.20,-0.78,11.76,99.8,-48
5449,124.363,-0.25,0.89,0.64,0.20,-0.59,11.76,99.8,-48
5450,124.447,-0.20,0.87,0.69,0.20,-0.49,11.76,99.8,-48
5451,124.531,-0.20,0.96,0.59,0.20,-0.74,11.09,99.8,-48
5452,124.614,-0.17,0.87,0.64,0.05,-0.59,11.11,99.8,-48
5453,124.698,-0.20,0.66,0.59,0.00,-0.29,11.13,99.8,-48
5454,124.798,-0.16,1.21,0.78,0.83,-0.39,11.82,99.9,-49
5455,124.898,-0.18,1.28,0.74,1.03,-0.20,11.82,99.9,-49
5456,124.998,-0.19,1.05,0.64,0.83,-0.05,11.82,99.9,-49
5457,125.099,-0.19,0.91,0.64,0.64,-0.15,11.11,99.9,-49
5458,125.199,-0.20,0.92,0.64,0.54,-0.39,11.09,99.9,-49
5459,125.299,-0.15,0.96,0.54,0.54,-0.59,11.07,99.9,-49
5460,125.383,-0.08,1.08,0.44,0.98,0.05,11.76,99.9,-53
5461,125.466,-0.19,1.06,0.59,0.88,0.00,11.76,99.9,-53
5462,125.550,-0.17,1.01,0.49,0.88,-0.10,11.76,99.9,-53
5463,125.634,-0.17,0.97,0.34,0.88,-0.20,11.07,99.9,-53
5464,125.717,-0.17,1.06,0.29,0.98,-0.29,11.07,99.9,-53
5465,125.801,-0.21,1.16,0.39,0.98,-0.49,11.07,99.9,-53
5466,125.884,-0.22,0.92,0.10,0.88,-0.24,11.76,99.9,-60
5467,125.968,-0.30,0.90,0.15,0.83,-0.29,11.76,99.9,-60
5468,126.052,-0.36,1.06,0.29,0.98,-0.29,11.76,99.9,-60
5469,126.135,-0.36,0.98,0.39,0.88,-0.15,11.07,99.9,-60
5470,126.219,-0.42,1.11,0.49,0.98,-0.15,11.07,99.9,-60
5471,126.302,-0.44,1.04,0.34,0.98,-0.10,11.07,99.9,-60
5472,126.386,-0.43,1.08,0.24,0.98,-0.39,11.76,99.9,-42
5473,126.470,-0.40,1.11,0.20,0.98,-0.49,11.76,99.9,-42
5474,126.553,-0.44,1.00,0.15,0.88,-0.44,11.76,99.9,-42
5475,126.637,-0.44,0.86,0.20,0.78,-0.29,11.09,99.9,-42
5476,126.720,-0.38,0.97,0.24,0.93,-0.10,11.11,99.9,-42
5477,126.804,-0.40,1.06,0.24,1.03,-0.10,11.13,99.9,-42
5478,126.904,-0.38,1.14,0.00,1.13,0.20,11.82,99.9,-47
5479,127.005,-0.48,1.11,0.00,1.08,0.24,11.83,99.9,-47
5480,127.105,-0.47,1.02,0.00,0.98,0.29,11.83,99.9,-47
5481,127.205,-0.47,1.03,-0.10,0.98,0.29,11.11,99.9,-47
5482,127.305,-0.48,1.00,-0.10,0.93,0.34,11.09,99.9,-47
5483,127.405,-0.42,1.06,-0.24,0.93,0.44,11.07,99.9,-47
5484,127.489,-0.45,1.03,-0.59,0.83,0.15,11.76,99.9,-39
5485,127.573,-0.53,1.30,-0.78,1.03,0.15,11.76,99.9,-39
5486,127.656,-0.51,1.47,-0.98,1.03,0.39,11.76,99.9,-39
5487,127.740,-0.51,1.35,-0.78,0.93,0.59,11.07,99.9,-39
5488,127.824,-0.56,1.04,-0.10,0.98,0.34,11.07,99.9,-39
5489,127.907,-0.58,1.28,0.15,1.27,0.00,11.07,99.9,-39
5490,127.991,-0.51,1.14,0.44,0.49,-0.93,11.76,99.9,-43
5491,128.074,-0.54,1.34,0.54,0.49,-1.13,11.76,99.9,-43
5492,128.158,-0.50,1.56,0.93,1.08,-0.64,11.76,99.9,-43
5493,128.242,-0.50,1.70,1.03,1.27,-0.44,11.07,99.9,-43
5494,128.325,-0.49,2.01,1.03,1.72,-0.15,11.07,99.9,-43
5495,128.409,-0.43,1.95,0.98,1.67,-0.24,11.07,99.9,-43
5496,128.492,-0.26,1.20,0.29,1.08,-0.44,11.76,99.9,-45
5497,128.576,-0.13,1.19,0.24,1.08,-0.44,11.76,99.9,-45
5498,128.660,-0.04,0.95,0.24,0.88,-0.24,11.76,99.9,-45
5499,128.743,-0.04,0.94,0.29,0.88,-0.15,11.07,99.9,-45
5500,128.827,0.01,0.85,0.15,0.78,-0.29,11.07,99.9,-45
5501,128.910,0.05,1.24,0.10,1.03,-0.69,11.07,99.9,-45
5502,129.011,0.11,1.00,0.10,0.98,-0.15,11.73,99.9,-49
5503,129.111,0.04,1.24,0.29,1.13,-0.44,11.71,99.9,-49
5504,129.211,0.00,0.75,0.29,0.69,-0.05,11.69,99.9,-49
5505,129.311,0.00,0.97,0.24,0.93,-0.15,11.00,99.9,-49
5506,129.412,-0.03,1.16,0.34,1.08,0.24,11.00,99.9,-49
5507,129.512,0.03,1.10,0.20,1.08,0.05,11.00,99.9,-49
5508,129.595,0.15,0.96,0.24,0.88,0.29,11.71,99.9,-48
5509,129.679,0.11,0.98,0.34,0.88,0.24,11.73,99.9,-48
5510,129.762,0.14,1.05,0.34,0.98,0.15,11.76,99.9,-48
5511,129.846,0.14,0.82,0.34,0.74,0.10,11.07,99.9,-48
5512,129.929,0.18,0.85,0.29,0.78,0.15,11.07,99.9,-48
5513,130.013,0.26,0.93,0.29,0.88,0.10,11.07,99.9,-48
5514,130.096,0.29,0.94,0.44,0.83,0.05,11.76,99.9,-56
5515,130.180,0.22,0.88,0.39,0.78,0.05,11.76,99.9,-56
5516,130.263,0.24,1.08,0.69,0.83,0.05,11.76,99.9,-56
5517,130.347,0.24,0.95,0.54,0.78,0.00,11.07,99.9,-56
5518,130.431,0.24,0.94,0.44,0.83,0.05,11.07,99.9,-56
5519,130.514,0.24,0.93,0.49,0.78,0.10,11.07,99.9,-56
5520,130.598,0.28,0.91,0.34,0.83,0.10,11.76,99.9,-65
5521,130.681,0.21,0.86,0.34,0.78,-0.05,11.76,99.9,-65
5522,130.765,0.21,0.99,0.44,0.88,-0.10,11.76,99.9,-65
5523,130.849,0.21,1.12,0.59,0.93,-0.20,11.07,99.9,-65
5524,130.932,0.21,1.19,0.59,1.03,-0.10,11.07,99.9,-65
5525,131.016,0.27,1.01,0.49,0.88,-0.10,11.07,99.9,-65
5526,131.099,0.33,0.91,0.20,0.88,-0.10,11.76,99.9,-61
5527,131.183,0.28,0.77,0.20,0.74,-0.15,11.76,99.9,-61
5528,131.267,0.25,0.89,0.24,0.74,-0.44,11.76,99.9,-61
5529,131.350,0.25,1.31,0.44,1.03,-0.69,11.09,99.9,-61
5530,131.434,0.23,1.46,0.59,1.22,-0.54,11.11,99.9,-61
5531,131.517,0.32,1.51,0.44,1.37,-0.44,11.13,99.9,-61
5532,131.617,0.32,1.08,0.29,0.98,-0.34,11.83,99.9,-61
5533,131.717,0.33,1.02,0.34,0.88,-0.39,11.83,99.9,-61
5534,131.818,0.34,1.01,0.29,0.93,-0.24,11.83,99.9,-61
5535,131.918,0.34,1.17,0.24,1.13,-0.20,11.11,99.9,-61
5536,132.018,0.23,1.17,0.24,1.13,-0.20,11.09,99.9,-61
5537,132.118,0.27,1.16,0.24,1.13,-0.15,11.07,99.9,-61
5538,132.201,0.27,1.19,0.15,1.18,-0.15,11.76,99.9,-63
5539,132.285,0.30,1.24,0.20,1.22,-0.10,11.76,99.9,-63
5540,132.369,0.36,1.35,0.20,1.32,-0.15,11.76,99.9,-63
5541,132.452,0.36,1.31,0.29,1.27,-0.10,11.07,99.9,-63
5542,132.536,0.35,1.26,0.20,1.22,-0.20,11.07,99.9,-63
5543,132.619,0.30,1.23,0.24,1.18,-0.24,11.07,99.9,-63
5544,132.703,0.36,1.64,0.00,1.57,-0.49,11.76,99.9,-68
5545,132.787,0.29,1.68,0.10,1.62,-0.44,11.76,99.9,-68
5546,132.870,0.19,1.51,0.10,1.47,-0.34,11.76,99.9,-68
5547,132.954,0.19,1.41,0.05,1.37,-0.34,11.07,99.9,-68
5548,133.037,0.16,1.17,0.05,1.13,-0.29,11.07,99.9,-68
5549,133.121,0.17,1.12,0.00,1.08,-0.29,11.07,99.9,-68
5550,133.205,0.15,1.24,-0.05,1.22,-0.20,11.76,99.9,-71
5551,133.288,0.11,1.38,0.05,1.32,-0.39,11.76,99.9,-71
5552,133.372,0.08,1.45,0.10,1.42,-0.29,11.76,99.9,-71
5553,133.455,0.08,1.28,0.00,1.27,-0.15,11.09,99.9,-71
5554,133.539,0.00,1.15,0.00,1.13,-0.24,11.11,99.9,-71
5555,133.623,0.03,1.26,0.00,1.18,-0.44,11.13,99.9,-71
5556,133.723,0.09,1.46,-0.10,1.37,-0.49,11.83,99.9,-75
5557,133.823,-0.02,1.48,-0.15,1.37,-0.54,11.83,99.9,-75
5558,133.923,-0.01,1.56,-0.05,1.52,-0.34,11.83,99.9,-75
5559,134.024,-0.01,1.56,-0.05,1.52,-0.34,11.11,99.9,-75
5560,134.124,-0.06,1.48,-0.05,1.47,-0.15,11.09,99.9,-75
5561,134.224,-0.06,1.28,-0.05,1.27,-0.15,11.07,99.9,-75
5562,134.308,0.10,1.23,-0.05,1.18,-0.34,11.76,100.0,-76
5563,134.391,0.20,1.24,0.10,1.18,-0.39,11.76,100.0,-76
5564,134.475,0.09,1.37,0.15,1.32,-0.34,11.76,100.0,-76
5565,134.558,0.09,1.25,0.15,1.22,-0.20,11.07,100.0,-76
5566,134.642,0.14,1.19,0.05,1.18,-0.15,11.07,100.0,-76
5567,134.726,0.16,1.14,0.05,1.13,-0.20,11.07,100.0,-76
5568,134.809,0.23,1.41,0.10,1.37,-0.29,11.76,100.0,-77
5569,134.893,0.15,1.52,0.10,1.42,-0.54,11.76,100.0,-77
5570,134.976,0.10,1.58,0.20,1.47,-0.54,11.76,100.0,-77
5571,135.059,0.10,1.59,0.20,1.52,-0.44,11.07,100.0,-77
5572,135.143,0.08,1.53,0.10,1.52,-0.15,11.07,100.0,-77
5573,135.226,0.13,1.38,0.05,1.37,-0.10,11.07,100.0,-77
5574,135.310,0.24,1.32,0.00,1.27,-0.34,11.76,100.0,-79
5575,135.393,0.22,1.28,0.10,1.22,-0.34,11.76,100.0,-79
5576,135.477,0.20,1.66,0.10,1.62,-0.34,11.76,100.0,-79
5577,135.561,0.20,1.48,0.15,1.42,-0.39,11.09,100.0,-79
5578,135.644,0.22,1.41,0.24,1.37,-0.24,11.11,100.0,-79
5579,135.728,0.30,1.46,0.20,1.42,-0.24,11.13,100.0,-79
5580,135.828,0.39,1.32,0.10,1.27,-0.34,11.83,100.0,-76
5581,135.928,0.43,1.21,0.15,1.18,-0.24,11.83,100.0,-76
5582,136.029,0.42,1.37,0.15,1.27,-0.49,11.83,100.0,-76
5583,136.129,0.42,1.39,0.15,1.32,-0.39,11.11,100.0,-76
5584,136.229,0.44,1.70,0.24,1.67,-0.20,11.09,100.0,-76
5585,136.329,0.49,1.63,0.20,1.62,-0.05,11.07,100.0,-76
5586,136.413,0.56,1.38,0.05,1.37,-0.10,11.76,100.0,-79
5587,136.497,0.42,1.39,0.05,1.37,-0.24,11.76,100.0,-79
5588,136.580,0.37,1.35,0.05,1.32,-0.24,11.76,100.0,-79
5589,136.664,0.37,1.41,0.20,1.37,-0.24,11.07,100.0,-79
5590,136.747,0.38,1.41,0.24,1.37,-0.20,11.07,100.0,-79
5591,136.831,0.44,1.31,0.24,1.27,-0.15,11.07,100.0,-79
5592,136.915,0.49,1.19,0.15,1.18,-0.10,11.76,100.0,-88
5593,136.998,0.45,1.09,0.10,1.03,-0.34,11.76,100.0,-88
5594,137.082,0.46,1.14,0.10,1.08,-0.34,11.76,100.0,-88
5595,137.165,0.46,1.40,0.10,1.37,-0.24,11.07,100.0,-88
5596,137.249,0.37,1.62,0.10,1.62,-0.10,11.07,100.0,-88
5597,137.333,0.39,1.62,0.15,1.62,0.05,11.07,100.0,-88
5598,137.416,0.43,1.08,0.00,1.08,-0.05,11.76,100.0,-92
5599,137.500,0.46,1.11,-0.05,1.08,-0.24,11.76,100.0,-92
5600,137.583,0.38,1.08,0.00,1.08,-0.10,11.76,100.0,-92
5601,137.667,0.38,1.21,0.10,1.13,-0.44,11.09,100.0,-92
5602,137.751,0.35,1.31,0.24,1.22,-0.39,11.11,100.0,-92
5603,137.834,0.35,1.24,0.24,1.18,-0.29,11.13,100.0,-92
5604,137.935,0.41,1.00,0.10,0.98,-0.20,11.83,100.0,-93
5605,138.035,0.41,1.14,0.10,1.13,-0.15,11.83,100.0,-93
5606,138.135,0.43,1.15,0.05,1.13,-0.24,11.83,100.0,-93
5607,138.235,0.43,1.20,0.10,1.18,-0.24,11.11,100.0,-93
5608,138.335,0.46,1.23,0.05,1.18,-0.34,11.09,100.0,-93
5609,138.436,0.47,1.21,0.05,1.18,-0.29,11.07,100.0,-93
5610,138.519,0.56,1.14,-0.15,1.13,0.00,11.76,100.0,-93
5611,138.603,0.42,1.19,-0.15,1.18,0.05,11.76,100.0,-93
5612,138.687,0.37,1.23,-0.05,1.22,0.00,11.76,100.0,-93
5613,138.770,0.37,1.23,-0.10,1.22,-0.05,11.07,100.0,-93
5614,138.854,0.28,1.20,-0.10,1.18,-0.20,11.07,100.0,-93
5615,138.937,0.27,1.20,-0.10,1.18,-0.24,11.07,100.0,-93
5616,139.021,0.34,1.28,-0.05,1.27,-0.15,11.76,100.0,-93
5617,139.105,0.23,1.23,0.00,1.22,-0.15,11.76,100.0,-93
5618,139.188,0.19,1.18,0.00,1.18,-0.15,11.76,100.0,-93
5619,139.272,0.19,1.10,0.00,1.08,-0.20,11.07,100.0,-93
5620,139.355,0.11,1.09,-0.05,1.08,-0.15,11.07,100.0,-93
5621,139.439,0.12,0.98,0.00,0.98,-0.10,11.07,100.0,-93
5622,139.523,0.16,1.29,-0.20,1.27,-0.10,11.76,100.0,-87
5623,139.606,0.08,1.31,-0.24,1.27,-0.15,11.76,100.0,-87
5624,139.690,0.06,1.22,-0.24,1.18,-0.20,11.76,100.0,-87
5625,139.773,0.06,1.16,-0.20,1.13,-0.20,11.07,100.0,-87
5626,139.857,-0.03,1.18,-0.24,1.13,-0.24,11.07,100.0,-87
5627,139.941,-0.03,1.18,-0.24,1.13,-0.24,11.07,100.0,-87
5628,140.041,0.03,1.14,-0.24,1.08,-0.29,11.74,100.0,-87
5629,140.141,-0.01,1.13,-0.24,1.08,-0.24,11.71,100.0,-87
5630,140.241,-0.04,1.16,-0.24,1.08,-0.34,11.69,100.0,-87
5631,140.342,-0.04,1.16,-0.24,1.08,-0.34,11.00,100.0,-87
5632,140.442,-0.10,1.27,-0.20,1.22,-0.29,11.00,100.0,-87
5633,140.542,-0.08,1.26,-0.24,1.18,-0.39,11.00,100.0,-87
5634,140.626,-0.02,1.38,-0.34,1.18,-0.64,11.71,100.0,-90
5635,140.709,-0.12,1.32,-0.44,1.13,-0.54,11.74,100.0,-90
5636,140.793,-0.15,1.38,-0.39,1.22,-0.49,11.76,100.0,-90
5637,140.877,-0.15,1.35,-0.39,1.18,-0.54,11.07,100.0,-90
5638,140.960,-0.21,1.37,-0.44,1.18,-0.54,11.07,100.0,-90
5639,141.044,-0.22,1.41,-0.44,1.22,-0.54,11.07,100.0,-90
5640,141.127,-0.23,1.30,-0.49,1.08,-0.54,11.76,100.0,-90
5641,141.211,-0.20,1.27,-0.39,1.08,-0.54,11.76,100.0,-90
5642,141.295,-0.17,1.30,-0.54,1.08,-0.49,11.76,100.0,-90
5643,141.378,-0.17,1.26,-0.49,1.08,-0.44,11.07,100.0,-90
5644,141.462,-0.28,1.35,-0.44,1.18,-0.49,11.07,100.0,-90
5645,141.545,-0.27,1.32,-0.49,1.13,-0.49,11.07,100.0,-90
5646,141.629,-0.21,1.24,-0.29,1.13,-0.44,11.76,100.0,-89
5647,141.713,-0.20,1.21,-0.24,1.08,-0.49,11.76,100.0,-89
5648,141.796,-0.20,1.28,-0.34,1.13,-0.49,11.76,100.0,-89
5649,141.880,-0.20,1.26,-0.29,1.13,-0.49,11.07,100.0,-89
5650,141.963,-0.26,1.30,-0.34,1.13,-0.54,11.07,100.0,-89
5651,142.047,-0.30,1.31,-0.39,1.13,-0.54,11.07,100.0,-89
5652,142.131,-0.31,1.22,-0.15,1.03,-0.64,11.76,100.0,-102
5653,142.214,-0.28,1.28,-0.15,1.13,-0.59,11.76,100.0,-102
5654,142.298,-0.37,1.35,-0.20,1.22,-0.54,11.76,100.0,-102
5655,142.381,-0.37,1.24,-0.20,1.13,-0.49,11.09,100.0,-102
5656,142.465,-0.30,1.24,-0.20,1.13,-0.49,11.11,100.0,-102
5657,142.549,-0.26,1.16,-0.20,1.08,-0.39,11.13,100.0,-102
5658,142.649,-0.26,1.24,-0.49,1.03,-0.49,11.83,100.0,-95
5659,142.749,-0.34,1.26,-0.49,1.03,-0.54,11.83,100.0,-95
5660,142.849,-0.41,1.37,-0.29,1.18,-0.64,11.83,100.0,-95
5661,142.950,-0.41,1.44,-0.20,1.22,-0.74,11.11,100.0,-95
5662,143.050,-0.40,1.40,-0.24,1.22,-0.64,11.09,100.0,-95
5663,143.150,-0.46,1.33,-0.29,1.18,-0.54,11.07,100.0,-95
5664,143.234,-0.43,1.39,-0.39,1.18,-0.64,11.76,100.0,-92
5665,143.317,-0.41,1.29,-0.39,1.08,-0.59,11.76,100.0,-92
5666,143.401,-0.45,1.27,-0.34,1.08,-0.59,11.76,100.0,-92
5667,143.484,-0.45,1.21,-0.39,1.03,-0.49,11.07,100.0,-92
5668,143.568,-0.44,1.23,-0.34,1.08,-0.49,11.07,100.0,-92
5669,143.652,-0.41,1.26,-0.49,1.03,-0.54,11.07,100.0,-92
5670,143.735,-0.41,1.34,-0.49,0.93,-0.83,11.76,100.0,-97
5671,143.819,-0.47,1.25,-0.49,0.88,-0.74,11.76,100.0,-97
5672,143.902,-0.47,1.21,-0.49,0.83,-0.74,11.76,100.0,-97
5673,143.986,-0.47,1.10,-0.44,0.93,-0.39,11.06,100.0,-97
5674,144.070,-0.52,1.40,-0.54,1.03,-0.78,11.06,100.0,-97
5675,144.153,-0.56,1.47,-0.54,1.08,-0.83,11.06,100.0,-97
5676,144.237,-0.54,1.46,-0.44,1.08,-0.88,11.76,100.0,-99
5677,144.320,-0.60,1.32,-0.39,1.03,-0.74,11.76,100.0,-99
5678,144.404,-0.63,1.29,-0.29,0.98,-0.78,11.76,100.0,-99
5679,144.488,-0.63,1.21,-0.24,0.88,-0.78,11.09,100.0,-99
5680,144.571,-0.58,1.16,-0.20,0.88,-0.74,11.11,100.0,-99
5681,144.655,-0.59,1.21,-0.24,0.88,-0.78,11.13,100.0,-99
5682,144.755,-0.49,1.19,-0.64,0.74,-0.69,11.82,100.0,-102
5683,144.855,-0.54,1.29,-0.59,0.88,-0.74,11.82,100.0,-102
5684,144.955,-0.54,1.24,-0.49,0.83,-0.78,11.82,100.0,-102
5685,145.056,-0.54,1.41,-0.64,0.98,-0.78,11.11,100.0,-102
5686,145.156,-0.54,1.47,-0.64,1.03,-0.83,11.09,100.0,-102
5687,145.256,-0.52,1.46,-1.03,0.78,-0.69,11.07,100.0,-102
5688,145.340,-0.55,1.77,-0.34,-1.67,-0.49,11.76,100.0,-97
5689,145.423,-0.64,0.60,-0.34,-0.29,-0.39,11.76,100.0,-97
5690,145.507,-0.70,1.17,-0.59,-0.98,-0.24,11.76,100.0,-97
5691,145.591,-0.70,0.86,-0.49,-0.64,-0.29,11.07,100.0,-97
5692,145.674,-0.72,1.01,-0.49,-0.83,-0.29,11.07,100.0,-97
5693,145.758,-0.81,1.21,-0.64,-0.98,-0.29,11.07,100.0,-97
5694,145.841,-0.77,1.03,-0.39,-0.78,-0.54,11.76,100.0,-92
5695,145.925,-0.78,1.06,-0.39,-0.78,-0.59,11.76,100.0,-92
5696,146.009,-0.75,1.05,-0.39,-0.74,-0.64,11.76,100.0,-92
5697,146.092,-0.75,1.08,-0.39,-0.78,-0.64,11.07,100.0,-92
5698,146.176,-0.72,1.02,-0.39,-0.69,-0.64,11.07,100.0,-92
5699,146.259,-0.68,0.97,-0.34,-0.69,-0.59,11.07,100.0,-92
5700,146.343,-0.68,1.00,-0.34,-0.69,-0.64,11.76,100.0,-95
5701,146.426,-0.71,1.02,-0.39,-0.69,-0.64,11.76,100.0,-95
5702,146.510,-0.71,1.02,-0.39,-0.74,-0.59,11.76,100.0,-95
5703,146.593,-0.71,1.00,-0.34,-0.74,-0.59,11.09,100.0,-95
5704,146.677,-0.71,1.03,-0.44,-0.69,-0.64,11.11,100.0,-95
5705,146.760,-0.72,1.02,-0.29,-0.74,-0.64,11.13,100.0,-95
5706,146.860,-0.70,0.96,-0.39,-0.69,-0.54,11.83,100.0,-96
5707,146.960,-0.72,1.00,-0.34,-0.74,-0.59,11.83,100.0,-96
5708,147.061,-0.73,1.03,-0.34,-0.74,-0.64,11.83,100.0,-96
5709,147.161,-0.73,0.99,-0.39,-0.74,-0.54,11.11,100.0,-96
5710,147.261,-0.81,1.02,-0.39,-0.74,-0.59,11.09,100.0,-96
5711,147.361,-0.78,0.99,-0.39,-0.74,-0.54,11.07,100.0,-96
5712,147.445,-0.72,1.07,-0.44,-0.74,-0.64,11.76,100.0,-96
5713,147.529,-0.75,1.02,-0.39,-0.74,-0.59,11.76,100.0,-96
5714,147.612,-0.79,0.98,-0.39,-0.64,-0.64,11.76,100.0,-96
5715,147.696,-0.79,1.04,-0.44,-0.74,-0.59,11.07,100.0,-96
5716,147.779,-0.80,0.99,-0.39,-0.69,-0.59,11.07,100.0,-96
5717,147.863,-0.73,0.97,-0.34,-0.74,-0.54,11.07,100.0,-96
5718,147.947,-0.69,1.02,-0.39,-0.69,-0.64,11.76,100.0,-99
5719,148.030,-0.75,0.97,-0.34,-0.74,-0.54,11.76,100.0,-99
5720,148.114,-0.74,1.04,-0.34,-0.78,-0.59,11.76,100.0,-99
5721,148.197,-0.74,1.03,-0.34,-0.74,-0.64,11.07,100.0,-99
5722,148.281,-0.76,1.02,-0.39,-0.74,-0.59,11.07,100.0,-99
5723,148.365,-0.73,1.00,-0.34,-0.74,-0.59,11.07,100.0,-99
5724,148.448,-0.66,1.02,-0.39,-0.74,-0.59,11.76,100.0,-95
5725,148.532,-0.65,0.95,-0.39,-0.64,-0.59,11.76,100.0,-95
5726,148.615,-0.67,0.99,-0.39,-0.69,-0.59,11.76,100.0,-95
5727,148.699,-0.67,1.01,-0.44,-0.69,-0.59,11.09,100.0,-95
5728,148.783,-0.71,1.05,-0.39,-0.74,-0.64,11.11,100.0,-95
5729,148.866,-0.80,1.00,-0.34,-0.69,-0.64,11.13,100.0,-95
5730,148.966,-0.71,1.12,-0.49,-0.74,-0.69,11.83,100.0,-96
5731,149.067,-0.72,1.15,-0.49,-0.78,-0.69,11.83,100.0,-96
5732,149.167,-0.76,1.13,-0.34,-0.78,-0.74,11.83,100.0,-96
5733,149.267,-0.76,0.77,-0.24,-0.54,-0.49,11.11,100.0,-96
5734,149.367,-0.79,0.90,-0.39,-0.69,-0.44,11.09,100.0,-96
5735,149.468,-0.79,1.11,-0.39,-0.78,-0.69,11.07,100.0,-96
5736,149.551,-0.67,0.99,-0.39,-0.74,-0.54,11.76,100.0,-103
5737,149.635,-0.72,1.01,-0.34,-0.78,-0.54,11.76,100.0,-103
5738,149.718,-0.73,1.02,-0.39,-0.74,-0.59,11.76,100.0,-103
5739,149.802,-0.73,0.98,-0.39,-0.64,-0.64,11.07,100.0,-103
5740,149.886,-0.73,1.05,-0.39,-0.74,-0.64,11.07,100.0,-103
5741,149.969,-0.68,1.02,-0.39,-0.69,-0.64,11.07,100.0,-103
5742,150.053,-0.60,1.17,-0.44,-0.64,-0.88,11.76,100.0,-107
5743,150.136,-0.61,1.11,-0.44,-0.59,-0.83,11.76,100.0,-107
5744,150.220,-0.65,1.14,-0.44,-0.64,-0.83,11.76,100.0,-107
5745,150.304,-0.65,1.08,-0.39,-0.64,-0.78,11.07,100.0,-107
5746,150.387,-0.72,1.05,-0.44,-0.54,-0.78,11.07,100.0,-107
5747,150.471,-0.73,1.07,-0.44,-0.59,-0.78,11.07,100.0,-107
5748,150.554,-0.69,1.07,-0.44,-0.64,-0.74,11.76,100.0,-104
5749,150.638,-0.77,1.15,-0.44,-0.59,-0.88,11.76,100.0,-104
5750,150.722,-0.82,1.10,-0.44,-0.64,-0.78,11.76,100.0,-104
5751,150.805,-0.82,1.14,-0.44,-0.64,-0.83,11.07,100.0,-104
5752,150.889,-0.88,1.11,-0.44,-0.59,-0.83,11.07,100.0,-104
5753,150.972,-0.80,1.16,-0.39,-0.64,-0.88,11.07,100.0,-104
5760,151.156,-0.73,1.12,-0.39,-0.64,-0.83,11.62,94.5,-100
5761,151.339,-0.72,1.08,-0.39,-0.64,-0.78,11.49,94.5,-100
5762,151.523,-0.70,1.20,-0.44,-0.69,-0.88,11.37,94.5,-100
5763,151.706,-0.70,1.17,-0.54,-0.54,-0.88,10.60,94.5,-100
5764,151.890,-0.78,1.12,-0.49,-0.64,-0.78,10.50,94.5,-100
5765,152.073,-0.77,1.07,-0.44,-0.59,-0.78,10.41,94.5,-100
5766,152.157,-0.69,1.10,-0.49,-0.59,-0.78,11.08,94.8,-101
5767,152.240,-0.73,1.07,-0.49,-0.54,-0.78,11.10,94.8,-101
5768,152.324,-0.75,1.11,-0.44,-0.59,-0.83,11.12,94.8,-101
5769,152.407,-0.75,1.11,-0.49,-0.54,-0.83,10.46,94.8,-101
5770,152.491,-0.82,1.12,-0.54,-0.59,-0.78,10.46,94.8,-101
5771,152.574,-0.80,1.11,-0.44,-0.59,-0.83,10.46,94.8,-101
5772,152.658,-0.72,1.15,-0.54,-0.59,-0.83,11.12,95.1,-100
5773,152.742,-0.84,1.13,-0.49,-0.59,-0.83,11.12,95.1,-100
5774,152.825,-0.82,1.12,-0.49,-0.49,-0.88,11.12,95.1,-100
5775,152.909,-0.82,1.11,-0.54,-0.49,-0.83,10.46,95.1,-100
5776,152.992,-0.87,1.13,-0.49,-0.59,-0.83,10.46,95.1,-100
5777,153.076,-0.82,1.13,-0.49,-0.59,-0.83,10.46,95.1,-100
5778,153.160,-0.77,1.18,-0.49,-0.54,-0.93,11.12,95.4,-104
5779,153.243,-0.81,1.18,-0.54,-0.49,-0.93,11.12,95.4,-104
5780,153.327,-0.83,1.12,-0.44,-0.54,-0.88,11.12,95.4,-104
5781,153.410,-0.83,1.12,-0.49,-0.49,-0.88,10.46,95.4,-104
5782,153.494,-0.92,1.18,-0.49,-0.54,-0.93,10.46,95.4,-104
5783,153.578,-0.90,1.11,-0.49,-0.54,-0.83,10.46,95.4,-104
5784,153.678,-0.82,1.17,-0.54,-0.54,-0.88,11.10,95.7,-106
5785,153.778,-0.87,1.23,-0.54,-0.59,-0.93,11.08,95.7,-106
5786,153.878,-0.80,1.11,-0.44,-0.59,-0.83,11.06,95.7,-106
5787,153.979,-0.80,1.18,-0.54,-0.49,-0.93,10.41,95.7,-106
5788,154.079,-0.80,1.14,-0.49,-0.54,-0.88,10.41,95.7,-106
5789,154.179,-0.75,1.17,-0.49,-0.59,-0.88,10.41,95.7,-106
5790,154.263,-0.68,1.14,-0.49,-0.54,-0.88,11.08,95.9,-106
5791,154.346,-0.70,1.17,-0.49,-0.59,-0.88,11.10,95.9,-106
5792,154.430,-0.75,1.17,-0.49,-0.59,-0.88,11.12,95.9,-106
5793,154.513,-0.75,1.17,-0.49,-0.59,-0.88,10.46,95.9,-106
5794,154.597,-0.81,1.13,-0.54,-0.54,-0.83,10.46,95.9,-106
5795,154.681,-0.87,1.17,-0.54,-0.54,-0.88,10.46,95.9,-106
5796,154.764,-0.81,1.12,-0.49,-0.49,-0.88,11.12,96.2,-100
5797,154.848,-0.79,1.16,-0.49,-0.64,-0.83,11.12,96.2,-100
5798,154.931,-0.78,1.17,-0.49,-0.59,-0.88,11.12,96.2,-100
5799,155.015,-0.78,1.17,-0.49,-0.59,-0.88,10.46,96.2,-100
5800,155.099,-0.83,1.11,-0.49,-0.54,-0.83,10.46,96.2,-100
5801,155.182,-0.78,1.16,-0.44,-0.54,-0.93,10.46,96.2,-100
5802,155.266,-0.74,1.09,-0.44,-0.54,-0.83,11.12,96.4,-100
5803,155.349,-0.74,1.12,-0.49,-0.49,-0.88,11.12,96.4,-100
5804,155.433,-0.73,1.14,-0.49,-0.54,-0.88,11.12,96.4,-100
5805,155.517,-0.73,1.11,-0.49,-0.54,-0.83,10.46,96.4,-100
5806,155.600,-0.76,1.11,-0.49,-0.54,-0.83,10.46,96.4,-100
5807,155.684,-0.77,1.18,-0.54,-0.49,-0.93,10.46,96.4,-100
5808,155.784,-0.73,1.17,-0.49,-0.59,-0.88,11.10,96.6,-105
5809,155.884,-0.78,1.07,-0.44,-0.59,-0.78,11.08,96.6,-105
5810,155.985,-0.80,1.17,-0.49,-0.59,-0.88,11.06,96.6,-105
5811,156.085,-0.80,1.12,-0.49,-0.49,-0.88,10.41,96.6,-105
5812,156.185,-0.84,1.14,-0.49,-0.54,-0.88,10.41,96.6,-105
5813,156.285,-0.82,1.14,-0.49,-0.54,-0.88,10.41,96.6,-105
5814,156.369,-0.74,1.13,-0.54,-0.54,-0.83,11.08,96.8,-105
5815,156.453,-0.76,1.15,-0.44,-0.59,-0.88,11.10,96.8,-105
5816,156.536,-0.74,1.15,-0.54,-0.59,-0.83,11.12,96.8,-105
5817,156.620,-0.74,1.14,-0.49,-0.54,-0.88,10.46,96.8,-105
5818,156.703,-0.71,1.14,-0.49,-0.54,-0.88,10.46,96.8,-105
5819,156.787,-0.69,1.11,-0.39,-0.54,-0.88,10.46,96.8,-105
5826,156.954,-0.70,1.13,-0.54,-0.54,-0.83,11.02,91.6,-97
5827,157.121,-0.73,1.11,-0.49,-0.54,-0.83,10.92,91.6,-97
5828,157.287,-0.72,1.09,-0.44,-0.54,-0.83,10.82,91.6,-97
5829,157.454,-0.72,1.14,-0.49,-0.54,-0.88,10.10,91.6,-97
5830,157.621,-0.76,1.15,-0.54,-0.59,-0.83,10.01,91.6,-97
5831,157.788,-0.77,1.07,-0.49,-0.54,-0.78,9.92,91.6,-97
5832,157.888,-0.67,1.23,-0.54,-0.39,-1.03,10.53,92.1,-100
5833,157.988,-0.73,1.12,-0.54,-0.44,-0.88,10.51,92.1,-100
5834,158.088,-0.79,1.24,-0.54,-0.44,-1.03,10.49,92.1,-100
5835,158.189,-0.79,1.20,-0.49,-0.49,-0.98,9.86,92.1,-100
5836,158.289,-0.82,1.20,-0.44,-0.44,-1.03,9.84,92.1,-100
5837,158.389,-0.80,1.18,-0.54,-0.49,-0.93,9.82,92.1,-100
5838,158.473,-0.75,1.20,-0.54,-0.44,-0.98,10.44,92.6,-97
5839,158.556,-0.74,1.20,-0.54,-0.44,-0.98,10.44,92.6,-97
5840,158.640,-0.72,1.16,-0.54,-0.44,-0.93,10.44,92.6,-97
5841,158.723,-0.72,1.24,-0.54,-0.44,-1.03,9.84,92.6,-97
5842,158.807,-0.77,1.16,-0.49,-0.49,-0.93,9.86,92.6,-97
5843,158.891,-0.74,1.16,-0.54,-0.44,-0.93,9.87,92.6,-97
5850,159.057,-0.76,1.22,-0.54,-0.49,-0.98,10.42,87.9,-101
5851,159.224,-0.81,1.22,-0.54,-0.49,-0.98,10.35,87.9,-101
5852,159.391,-0.79,1.24,-0.54,-0.44,-1.03,10.28,87.9,-101
5853,159.558,-0.79,1.18,-0.49,-0.44,-0.98,9.59,87.9,-101
5854,159.725,-0.90,1.20,-0.49,-0.49,-0.98,9.51,87.9,-101
5855,159.891,-0.90,1.20,-0.49,-0.49,-0.98,9.44,87.9,-101
5856,159.992,-0.82,1.22,-0.49,-0.44,-1.03,10.01,88.6,-114
5857,160.092,-0.77,1.16,-0.54,-0.44,-0.93,9.99,88.6,-114
5858,160.192,-0.71,1.21,-0.59,-0.49,-0.93,9.98,88.6,-114
5859,160.292,-0.71,1.24,-0.59,-0.49,-0.98,9.38,88.6,-114
5860,160.393,-0.70,1.18,-0.49,-0.54,-0.93,9.36,88.6,-114
5861,160.493,-0.78,1.20,-0.54,-0.44,-0.98,9.35,88.6,-114
5862,160.576,-0.74,1.21,-0.59,-0.49,-0.93,9.93,89.3,-100
5863,160.660,-0.69,1.20,-0.49,-0.49,-0.98,9.93,89.3,-100
5864,160.744,-0.70,1.20,-0.49,-0.49,-0.98,9.93,89.3,-100
5865,160.827,-0.70,1.14,-0.54,-0.49,-0.88,9.35,89.3,-100
5866,160.911,-0.73,1.22,-0.54,-0.49,-0.98,9.35,89.3,-100
5867,160.994,-0.73,1.16,-0.54,-0.44,-0.93,9.35,89.3,-100
5868,161.078,-0.76,1.17,-0.59,-0.49,-0.88,9.93,89.9,-98
5869,161.162,-0.77,1.21,-0.49,-0.59,-0.93,9.93,89.9,-98
5870,161.245,-0.82,1.14,-0.49,-0.44,-0.93,9.93,89.9,-98
5871,161.329,-0.82,1.12,-0.54,-0.44,-0.88,9.44,89.9,-98
5872,161.412,-0.86,1.22,-0.59,-0.44,-0.98,9.53,89.9,-98
5873,161.496,-0.79,1.13,-0.59,-0.49,-0.83,9.63,89.9,-98
5874,161.580,-0.74,1.20,-0.54,-0.44,-0.98,10.33,90.5,-96
5875,161.663,-0.73,1.21,-0.59,-0.39,-0.98,10.44,90.5,-96
5876,161.747,-0.79,1.19,-0.59,-0.44,-0.93,10.54,90.5,-96
5877,161.830,-0.79,1.18,-0.54,-0.49,-0.93,9.92,90.5,-96
5878,161.914,-0.86,1.20,-0.54,-0.44,-0.98,9.92,90.5,-96
5879,161.998,-0.80,1.18,-0.54,-0.49,-0.93,9.92,90.5,-96
5880,162.098,-0.75,1.17,-0.64,-0.29,-0.93,10.53,91.1,-114
5881,162.198,-0.76,1.21,-0.54,-0.34,-1.03,10.51,91.1,-114
5882,162.298,-0.86,1.17,-0.59,-0.24,-0.98,10.49,91.1,-114
5883,162.398,-0.86,1.21,-0.59,-0.39,-0.98,9.86,91.1,-114
5884,162.498,-0.84,1.36,-0.69,-0.34,-1.13,9.84,91.1,-114
5885,162.598,-0.86,1.25,-0.64,-0.29,-1.03,9.82,91.1,-114
5886,162.682,-0.84,1.32,-0.78,-0.24,-1.03,10.44,91.6,-98
5887,162.765,-0.83,1.25,-0.64,-0.29,-1.03,10.44,91.6,-98
5888,162.849,-0.82,1.29,-0.69,-0.15,-1.08,10.44,91.6,-98
5889,162.932,-0.82,1.28,-0.74,-0.20,-1.03,9.82,91.6,-98
5890,163.016,-0.85,1.25,-0.69,-0.20,-1.03,9.82,91.6,-98
5891,163.100,-0.80,1.33,-0.74,-0.24,-1.08,9.82,91.6,-98
5892,163.183,-0.70,1.24,-0.74,-0.20,-0.98,10.44,92.1,-109
5893,163.267,-0.73,1.25,-0.69,-0.20,-1.03,10.44,92.1,-109
5894,163.350,-0.76,1.32,-0.69,-0.10,-1.13,10.44,92.1,-109
5895,163.434,-0.76,1.28,-0.74,-0.20,-1.03,9.84,92.1,-109
5896,163.517,-0.83,1.34,-0.69,-0.24,-1.13,9.86,92.1,-109
5897,163.601,-0.75,1.29,-0.74,-0.24,-1.03,9.87,92.1,-109
5898,163.685,-0.77,1.25,-0.74,-0.24,-0.98,10.51,92.5,-107
5899,163.768,-0.78,1.26,-0.74,-0.29,-0.98,10.53,92.5,-107
5900,163.852,-0.80,1.24,-0.74,-0.20,-0.98,10.55,92.5,-107
5901,163.935,-0.80,1.28,-0.74,-0.20,-1.03,9.92,92.5,-107
5902,164.019,-0.87,1.27,-0.69,-0.29,-1.03,9.92,92.5,-107
5903,164.103,-0.84,1.24,-0.74,-0.20,-0.98,9.92,92.5,-107
5904,164.203,-0.78,1.32,-0.74,-0.20,-1.08,10.53,93.0,-98
5905,164.303,-0.81,1.25,-0.69,-0.20,-1.03,10.51,93.0,-98
5906,164.403,-0.82,1.28,-0.74,-0.20,-1.03,10.49,93.0,-98
5907,164.503,-0.82,1.26,-0.69,-0.24,-1.03,9.86,93.0,-98
5908,164.604,-0.90,1.21,-0.69,-0.20,-0.98,9.84,93.0,-98
5909,164.704,-0.85,1.21,-0.64,-0.29,-0.98,9.82,93.0,-98
5910,164.788,-0.78,1.23,-0.64,-0.24,-1.03,10.44,93.4,-96
5911,164.871,-0.82,1.30,-0.69,-0.24,-1.08,10.44,93.4,-96
5912,164.955,-0.84,1.27,-0.74,-0.15,-1.03,10.44,93.4,-96
5913,165.038,-0.84,1.27,-0.74,-0.15,-1.03,9.82,93.4,-96
5914,165.122,-0.86,1.22,-0.69,-0.24,-0.98,9.82,93.4,-96
5915,165.206,-0.88,1.28,-0.74,-0.20,-1.03,9.82,93.4,-96
5916,165.289,-0.81,1.30,-0.74,-0.29,-1.03,10.44,93.8,-99
5917,165.373,-0.85,1.29,-0.74,-0.24,-1.03,10.44,93.8,-99
5918,165.456,-0.92,1.23,-0.64,-0.24,-1.03,10.44,93.8,-99
5919,165.540,-0.92,1.28,-0.74,-0.20,-1.03,9.84,93.8,-99
5920,165.623,-1.00,1.31,-0.74,-0.15,-1.08,9.86,93.8,-99
5921,165.707,-0.96,1.29,-0.69,-0.20,-1.08,9.87,93.8,-99
5922,165.791,-0.85,1.25,-0.69,-0.20,-1.03,10.51,94.1,-91
5923,165.874,-0.81,1.27,-0.74,-0.15,-1.03,10.53,94.1,-91
5924,165.958,-0.83,1.22,-0.69,-0.24,-0.98,10.55,94.1,-91
5925,166.041,-0.83,1.28,-0.74,-0.20,-1.03,9.93,94.1,-91
5926,166.125,-0.89,1.28,-0.74,-0.20,-1.03,9.93,94.1,-91
5927,166.209,-0.81,1.23,-0.64,-0.24,-1.03,9.93,94.1,-91
5928,166.292,-0.69,1.24,-0.74,-0.20,-0.98,10.55,94.5,-91
5929,166.376,-0.79,1.24,-0.74,-0.20,-0.98,10.55,94.5,-91
5930,166.459,-0.79,1.21,-0.69,-0.20,-0.98,10.55,94.5,-91
5931,166.543,-0.79,1.28,-0.74,-0.20,-1.03,10.01,94.5,-91
5932,166.627,-0.83,1.24,-0.74,-0.20,-0.98,10.10,94.5,-91
5933,166.710,-0.78,1.26,-0.74,-0.29,-0.98,10.19,94.5,-91
5934,166.810,-0.74,1.33,-0.69,-0.20,-1.13,10.90,94.8,-95
5935,166.911,-0.75,1.26,-0.69,-0.24,-1.03,10.98,94.8,-95
5936,167.011,-0.76,1.25,-0.69,-0.20,-1.03,11.06,94.8,-95
5937,167.111,-0.76,1.28,-0.74,-0.20,-1.03,10.41,94.8,-95
5938,167.211,-0.81,1.19,-0.64,-0.24,-0.98,10.41,94.8,-95
5939,167.312,-0.80,1.26,-0.69,-0.24,-1.03,10.41,94.8,-95
5940,167.395,-0.74,1.24,-0.74,-0.20,-0.98,11.08,95.1,-100
5941,167.479,-0.76,1.28,-0.74,-0.20,-1.03,11.10,95.1,-100
5942,167.562,-0.76,1.29,-0.74,-0.24,-1.03,11.12,95.1,-100
5943,167.646,-0.76,1.24,-0.74,-0.20,-0.98,10.47,95.1,-100
5944,167.730,-0.74,1.24,-0.74,-0.20,-0.98,10.47,95.1,-100
5945,167.813,-0.76,1.26,-0.69,-0.24,-1.03,10.47,95.1,-100
5946,167.897,-0.71,1.26,-0.69,-0.24,-1.03,11.12,95.4,-98
5947,167.980,-0.64,1.26,-0.64,-0.15,-1.08,11.12,95.4,-98
5948,168.064,-0.65,1.23,-0.64,-0.24,-1.03,11.12,95.4,-98
5949,168.148,-0.65,1.27,-0.69,-0.29,-1.03,10.56,95.4,-98
5950,168.231,-0.76,1.22,-0.69,-0.24,-0.98,10.66,95.4,-98
5951,168.315,-0.76,1.29,-0.74,-0.24,-1.03,10.76,95.4,-98
5952,168.398,-0.69,1.22,-0.69,-0.24,-0.98,11.54,95.7,-96
5953,168.482,-0.67,1.29,-0.74,-0.24,-1.03,11.65,95.7,-96
5954,168.566,-0.67,1.27,-0.69,-0.29,-1.03,11.76,95.7,-96
5955,168.649,-0.67,1.27,-0.78,-0.20,-0.98,11.09,95.7,-96
5956,168.733,-0.71,1.25,-0.69,-0.15,-1.03,11.11,95.7,-96
5957,168.816,-0.80,1.27,-0.64,-0.20,-1.08,11.13,95.7,-96
5958,168.917,-0.76,1.29,-0.69,-0.15,-1.08,11.83,95.9,-99
5959,169.017,-0.79,1.29,-0.74,-0.24,-1.03,11.83,95.9,-99
5960,169.117,-0.84,1.25,-0.69,-0.20,-1.03,11.83,95.9,-99
5961,169.217,-0.84,1.28,-0.74,-0.20,-1.03,11.11,95.9,-99
5962,169.318,-0.79,1.21,-0.69,-0.20,-0.98,11.09,95.9,-99
5963,169.418,-0.80,1.29,-0.74,-0.24,-1.03,11.07,95.9,-99
5964,169.501,-0.75,1.29,-0.74,-0.24,-1.03,11.76,96.2,-102
5965,169.585,-0.78,1.30,-0.74,-0.29,-1.03,11.76,96.2,-102
5966,169.669,-0.73,1.28,-0.74,-0.20,-1.03,11.76,96.2,-102
5967,169.752,-0.73,1.28,-0.74,-0.20,-1.03,11.07,96.2,-102
5968,169.836,-0.87,1.25,-0.74,-0.24,-0.98,11.07,96.2,-102
5969,169.919,-0.78,1.28,-0.74,-0.20,-1.03,11.07,96.2,-102
5970,170.003,-0.72,1.26,-0.69,-0.24,-1.03,11.76,96.4,-93
5971,170.087,-0.78,1.26,-0.69,-0.24,-1.03,11.76,96.4,-93
5972,170.170,-0.84,1.30,-0.74,-0.29,-1.03,11.76,96.4,-93
5973,170.254,-0.84,1.29,-0.74,-0.24,-1.03,11.07,96.4,-93
5974,170.337,-0.83,1.26,-0.69,-0.24,-1.03,11.07,96.4,-93
5975,170.421,-0.81,1.29,-0.74,-0.24,-1.03,11.07,96.4,-93
5976,170.505,-0.70,1.20,-0.74,-0.20,-0.93,11.76,96.6,-93
5977,170.588,-0.74,1.37,-0.74,-0.24,-1.13,11.76,96.6,-93
5978,170.672,-0.77,1.28,-0.74,-0.20,-1.03,11.76,96.6,-93
5979,170.755,-0.77,1.27,-0.69,-0.29,-1.03,11.09,96.6,-93
5980,170.839,-0.79,1.25,-0.74,-0.24,-0.98,11.11,96.6,-93
5981,170.923,-0.83,1.29,-0.74,-0.24,-1.03,11.13,96.6,-93
5982,171.023,-0.77,1.28,-0.74,-0.20,-1.03,11.83,96.8,-93
5983,171.123,-0.81,1.24,-0.74,-0.20,-0.98,11.83,96.8,-93
5984,171.223,-0.85,1.19,-0.64,-0.20,-0.98,11.83,96.8,-93
5985,171.323,-0.85,1.24,-0.74,-0.20,-0.98,11.11,96.8,-93
5986,171.424,-0.91,1.26,-0.69,-0.24,-1.03,11.09,96.8,-93
5987,171.524,-0.88,1.31,-0.74,-0.15,-1.08,11.07,96.8,-93
5988,171.607,-0.83,1.25,-0.69,-0.20,-1.03,11.76,97.0,-95
5989,171.691,-0.87,1.26,-0.69,-0.24,-1.03,11.76,97.0,-95
5990,171.775,-0.87,1.25,-0.69,-0.20,-1.03,11.76,97.0,-95
5991,171.858,-0.87,1.25,-0.69,-0.20,-1.03,11.07,97.0,-95
5992,171.942,-0.89,1.21,-0.69,-0.20,-0.98,11.07,97.0,-95
5993,172.025,-0.85,1.32,-0.74,-0.20,-1.08,11.07,97.0,-95
5994,172.109,-0.73,1.29,-0.74,-0.24,-1.03,11.76,97.2,-95
5995,172.193,-0.77,1.21,-0.64,-0.29,-0.98,11.76,97.2,-95
5996,172.276,-0.73,1.21,-0.69,-0.20,-0.98,11.76,97.2,-95
5997,172.360,-0.73,1.29,-0.74,-0.24,-1.03,11.07,97.2,-95
5998,172.443,-0.80,1.22,-0.69,-0.24,-0.98,11.07,97.2,-95
5999,172.527,-0.78,1.27,-0.78,-0.20,-0.98,11.07,97.2,-95
6000,172.611,-0.81,1.28,-0.74,-0.20,-1.03,11.76,97.3,-95
6001,172.694,-0.73,1.25,-0.69,-0.20,-1.03,11.76,97.3,-95
6002,172.778,-0.81,1.27,-0.74,-0.15,-1.03,11.76,97.3,-95
6003,172.862,-0.81,1.27,-0.64,-0.20,-1.08,11.09,97.3,-95
6004,172.945,-0.92,1.24,-0.74,-0.20,-0.98,11.11,97.3,-95
6005,173.029,-0.96,1.25,-0.74,-0.24,-0.98,11.13,97.3,-95
6006,173.129,-0.84,1.29,-0.74,-0.24,-1.03,11.83,97.5,-96
6007,173.229,-0.87,1.29,-0.74,-0.24,-1.03,11.83,97.5,-96
6008,173.329,-0.82,1.17,-0.74,-0.24,-0.88,11.83,97.5,-96
6009,173.430,-0.82,1.24,-0.74,-0.20,-0.98,11.11,97.5,-96
6010,173.530,-0.78,1.23,-0.64,-0.20,-1.03,11.09,97.5,-96
6011,173.630,-0.76,1.24,-0.74,-0.20,-0.98,11.07,97.5,-96
6012,173.714,-0.71,1.35,-0.78,-0.20,-1.08,11.76,97.6,-93
6013,173.797,-0.72,1.26,-0.69,-0.24,-1.03,11.76,97.6,-93
6014,173.881,-0.81,1.24,-0.74,-0.20,-0.98,11.76,97.6,-93
6015,173.965,-0.81,1.25,-0.74,-0.24,-0.98,11.07,97.6,-93
6016,174.048,-0.89,1.18,-0.69,-0.24,-0.93,11.07,97.6,-93
6017,174.132,-0.88,1.29,-0.74,-0.24,-1.03,11.07,97.6,-93
6018,174.215,-0.89,1.26,-0.69,-0.24,-1.03,11.76,97.8,-98
6019,174.299,-0.91,1.24,-0.74,-0.20,-0.98,11.76,97.8,-98
6020,174.383,-0.83,1.26,-0.69,-0.24,-1.03,11.76,97.8,-98
6021,174.466,-0.83,1.25,-0.69,-0.20,-1.03,11.07,97.8,-98
6022,174.550,-0.87,1.26,-0.69,-0.24,-1.03,11.07,97.8,-98
6023,174.633,-0.87,1.29,-0.74,-0.24,-1.03,11.07,97.8,-98
6024,174.717,-0.84,1.29,-0.74,-0.24,-1.03,11.76,97.9,-96
6025,174.800,-0.88,1.29,-0.74,-0.24,-1.03,11.76,97.9,-96
6026,174.884,-0.87,1.24,-0.74,-0.20,-0.98,11.76,97.9,-96
6027,174.967,-0.87,1.29,-0.74,-0.24,-1.03,11.07,97.9,-96
6028,175.050,-0.90,1.24,-0.74,-0.20,-0.98,11.07,97.9,-96
6029,175.134,-0.85,1.22,-0.69,-0.24,-0.98,11.07,97.9,-96
6030,175.234,-0.82,1.25,-0.74,-0.24,-0.98,11.74,98.0,-101
6031,175.334,-0.80,1.29,-0.74,-0.24,-1.03,11.71,98.0,-101
6032,175.435,-0.76,1.25,-0.69,-0.20,-1.03,11.69,98.0,-101
6033,175.535,-0.76,1.28,-0.64,-0.24,-1.08,11.00,98.0,-101
6034,175.635,-0.83,1.24,-0.74,-0.20,-0.98,11.00,98.0,-101
6035,175.735,-0.77,1.21,-0.69,-0.15,-0.98,11.00,98.0,-101
6036,175.819,-0.76,1.31,-0.69,-0.29,-1.08,11.71,98.1,-100
6037,175.903,-0.67,1.25,-0.69,-0.20,-1.03,11.74,98.1,-100
6038,175.986,-0.65,1.29,-0.74,-0.24,-1.03,11.76,98.1,-100
6039,176.070,-0.65,1.25,-0.74,-0.24,-0.98,11.07,98.1,-100
6040,176.153,-0.73,1.27,-0.74,-0.15,-1.03,11.07,98.1,-100
6041,176.237,-0.76,1.32,-0.74,-0.20,-1.08,11.07,98.1,-100
6042,176.321,-0.73,1.23,-0.64,-0.24,-1.03,11.76,98.2,-99
6043,176.404,-0.73,1.29,-0.69,-0.20,-1.08,11.76,98.2,-99
6044,176.488,-0.81,1.27,-0.74,-0.15,-1.03,11.76,98.2,-99
6045,176.572,-0.81,1.28,-0.74,-0.20,-1.03,11.07,98.2,-99
6046,176.655,-0.85,1.26,-0.69,-0.24,-1.03,11.07,98.2,-99
6047,176.739,-0.82,1.22,-0.69,-0.24,-0.98,11.07,98.2,-99
6048,176.822,-0.76,1.25,-0.74,-0.24,-0.98,11.76,98.3,-101
6049,176.906,-0.87,1.32,-0.74,-0.20,-1.08,11.76,98.3,-101
6050,176.990,-0.89,1.31,-0.78,-0.20,-1.03,11.76,98.3,-101
6051,177.073,-0.89,1.21,-0.69,-0.15,-0.98,11.07,98.3,-101
6052,177.157,-0.82,1.25,-0.69,-0.20,-1.03,11.07,98.3,-101
6053,177.240,-0.75,1.29,-0.69,-0.15,-1.08,11.07,98.3,-101
6054,177.324,-0.71,1.32,-0.78,-0.24,-1.03,11.76,98.4,-100
6055,177.408,-0.73,1.28,-0.74,-0.20,-1.03,11.76,98.4,-100
6056,177.491,-0.76,1.26,-0.69,-0.24,-1.03,11.76,98.4,-100
6057,177.575,-0.76,1.28,-0.74,-0.20,-1.03,11.09,98.4,-100
6058,177.659,-0.80,1.29,-0.64,-0.29,-1.08,11.11,98.4,-100
6059,177.742,-0.79,1.26,-0.69,-0.24,-1.03,11.13,98.4,-100
6060,177.842,-0.72,1.25,-0.69,-0.20,-1.03,11.83,98.5,-97
6061,177.943,-0.82,1.27,-0.69,-0.29,-1.03,11.83,98.5,-97
6062,178.043,-0.79,1.21,-0.74,-0.24,-0.93,11.83,98.5,-97
6063,178.143,-0.79,1.30,-0.74,-0.29,-1.03,11.11,98.5,-97
6064,178.244,-0.79,1.34,-0.78,-0.15,-1.08,11.09,98.5,-97
6065,178.344,-0.81,1.28,-0.74,-0.20,-1.03,11.07,98.5,-97
6066,178.427,-0.74,1.34,-0.74,-0.29,-1.08,11.76,98.6,-96
6067,178.511,-0.87,1.26,-0.69,-0.24,-1.03,11.76,98.6,-96
6068,178.595,-0.86,1.21,-0.69,-0.20,-0.98,11.76,98.6,-96
6069,178.678,-0.86,1.27,-0.74,-0.15,-1.03,11.07,98.6,-96
6070,178.762,-0.94,1.25,-0.74,-0.24,-0.98,11.07,98.6,-96
6071,178.845,-0.91,1.22,-0.69,-0.24,-0.98,11.07,98.6,-96
6072,178.929,-0.85,1.28,-0.74,-0.20,-1.03,11.76,98.7,-97
6073,179.013,-0.92,1.25,-0.69,-0.20,-1.03,11.76,98.7,-97
6074,179.096,-0.95,1.28,-0.74,-0.20,-1.03,11.76,98.7,-97
6075,179.180,-0.95,1.27,-0.69,-0.29,-1.03,11.07,98.7,-97
6076,179.264,-0.96,1.27,-0.74,-0.15,-1.03,11.07,98.7,-97
6077,179.347,-0.98,1.22,-0.74,-0.29,-0.93,11.07,98.7,-97
6078,179.431,-0.90,1.33,-0.74,-0.24,-1.08,11.76,98.8,-100
6079,179.514,-0.85,1.27,-0.69,-0.29,-1.03,11.76,98.8,-100
6080,179.598,-0.80,1.31,-0.74,-0.15,-1.08,11.76,98.8,-100
6081,179.682,-0.80,1.27,-0.69,-0.29,-1.03,11.09,98.8,-100
6082,179.765,-0.83,1.23,-0.69,-0.29,-0.98,11.11,98.8,-100
6083,179.849,-0.82,1.26,-0.69,-0.24,-1.03,11.13,98.8,-100
6084,179.949,-0.77,1.34,-0.78,-0.15,-1.08,11.83,98.9,-102
6085,180.049,-0.81,1.19,-0.74,-0.10,-0.93,11.83,98.9,-102
6086,180.150,-0.82,1.28,-0.74,-0.20,-1.03,11.83,98.9,-102
6087,180.250,-0.82,1.24,-0.74,-0.20,-0.98,11.11,98.9,-102
6088,180.350,-0.83,1.30,-0.69,-0.24,-1.08,11.09,98.9,-102
6089,180.450,-0.76,1.21,-0.74,-0.24,-0.93,11.07,98.9,-102
6090,180.534,-0.71,1.30,-0.69,-0.24,-1.08,11.76,98.9,-97
6091,180.618,-0.77,1.24,-0.74,-0.20,-0.98,11.76,98.9,-97
6092,180.701,-0.82,1.28,-0.74,-0.20,-1.03,11.76,98.9,-97
6093,180.785,-0.82,1.25,-0.69,-0.20,-1.03,11.07,98.9,-97
6094,180.868,-0.84,1.29,-0.74,-0.24,-1.03,11.07,98.9,-97
6095,180.952,-0.90,1.31,-0.78,-0.20,-1.03,11.07,98.9,-97
6096,181.036,-0.83,1.27,-0.74,-0.15,-1.03,11.76,99.0,-98
6097,181.119,-0.82,1.28,-0.74,-0.20,-1.03,11.76,99.0,-98
6098,181.203,-0.84,1.23,-0.74,-0.15,-0.98,11.76,99.0,-98
6099,181.286,-0.84,1.21,-0.69,-0.20,-0.98,11.07,99.0,-98
6100,181.370,-0.84,1.33,-0.74,-0.24,-1.08,11.07,99.0,-98
6101,181.454,-0.78,1.29,-0.74,-0.24,-1.03,11.07,99.0,-98
6102,181.537,-0.76,1.33,-0.74,-0.24,-1.08,11.76,99.0,-100
6103,181.621,-0.77,1.25,-0.74,-0.24,-0.98,11.76,99.0,-100
6104,181.704,-0.82,1.16,-0.74,-0.15,-0.88,11.76,99.0,-100
6105,181.788,-0.82,1.25,-0.74,-0.24,-0.98,11.09,99.0,-100
6106,181.872,-0.89,1.25,-0.69,-0.20,-1.03,11.11,99.0,-100
6107,181.955,-0.81,1.30,-0.69,-0.24,-1.08,11.13,99.0,-100
6108,182.055,-0.77,1.26,-0.69,-0.24,-1.03,11.83,99.1,-98
6109,182.156,-0.85,1.30,-0.74,-0.29,-1.03,11.83,99.1,-98
6110,182.256,-0.84,1.21,-0.69,-0.15,-0.98,11.83,99.1,-98
6111,182.356,-0.84,1.21,-0.69,-0.20,-0.98,11.11,99.1,-98
6112,182.456,-0.87,1.24,-0.74,-0.20,-0.98,11.09,99.1,-98
6113,182.557,-0.81,1.30,-0.74,-0.29,-1.03,11.07,99.1,-98
6114,182.640,-0.77,1.35,-0.78,-0.20,-1.08,11.76,99.1,-98
6115,182.724,-0.82,1.25,-0.69,-0.20,-1.03,11.76,99.1,-98
6116,182.807,-0.76,1.26,-0.69,-0.24,-1.03,11.76,99.1,-98
6117,182.891,-0.76,1.28,-0.74,-0.20,-1.03,11.07,99.1,-98
6118,182.975,-0.80,1.33,-0.74,-0.24,-1.08,11.07,99.1,-98
6119,183.058,-0.80,1.23,-0.64,-0.24,-1.03,11.07,99.1,-98
6120,183.142,-0.71,1.33,-0.74,-0.24,-1.08,11.76,99.2,-100
6121,183.225,-0.75,1.31,-0.78,-0.20,-1.03,11.76,99.2,-100
6122,183.309,-0.85,1.29,-0.74,-0.24,-1.03,11.76,99.2,-100
6123,183.393,-0.85,1.23,-0.69,-0.29,-0.98,11.07,99.2,-100
6124,183.476,-0.89,1.23,-0.69,-0.29,-0.98,11.06,99.2,-100
6125,183.560,-0.84,1.25,-0.69,-0.15,-1.03,11.06,99.2,-100
6126,183.643,-0.79,1.25,-0.69,-0.20,-1.03,11.76,99.2,-96
6127,183.727,-0.87,1.31,-0.74,-0.15,-1.08,11.76,99.2,-96
6128,183.811,-0.79,1.18,-0.69,-0.24,-0.93,11.76,99.2,-96
6129,183.894,-0.79,1.22,-0.69,-0.24,-0.98,11.09,99.2,-96
6130,183.978,-0.78,1.25,-0.69,-0.20,-1.03,11.11,99.2,-96
6131,184.061,-0.77,1.25,-0.69,-0.20,-1.03,11.13,99.2,-96
6132,184.162,-0.70,1.33,-0.74,-0.24,-1.08,11.82,99.3,-91
6133,184.262,-0.74,1.25,-0.74,-0.24,-0.98,11.82,99.3,-91
6134,184.362,-0.74,1.29,-0.74,-0.24,-1.03,11.82,99.3,-91
6135,184.462,-0.74,1.22,-0.69,-0.24,-0.98,11.11,99.3,-91
6136,184.563,-0.81,1.31,-0.74,-0.15,-1.08,11.09,99.3,-91
6137,184.663,-0.77,1.24,-0.74,-0.20,-0.98,11.06,99.3,-91
6138,184.746,-0.76,1.23,-0.69,-0.29,-0.98,11.76,99.3,-90
6139,184.830,-0.74,1.25,-0.74,-0.24,-0.98,11.76,99.3,-90
6140,184.914,-0.71,1.28,-0.74,-0.20,-1.03,11.76,99.3,-90
6141,184.997,-0.71,1.22,-0.69,-0.24,-0.98,11.06,99.3,-90
6142,185.081,-0.84,1.24,-0.74,-0.20,-0.98,11.06,99.3,-90
6143,185.164,-0.75,1.22,-0.69,-0.24,-0.98,11.06,99.3,-90
6144,185.248,-0.69,1.28,-0.74,-0.20,-1.03,11.76,99.4,-90
6145,185.332,-0.79,1.25,-0.69,-0.15,-1.03,11.76,99.4,-90
6146,185.415,-0.78,1.26,-0.74,-0.29,-0.98,11.76,99.4,-90
6147,185.499,-0.78,1.27,-0.69,-0.29,-1.03,11.06,99.4,-90
6148,185.582,-0.74,1.33,-0.74,-0.24,-1.08,11.06,99.4,-90
6149,185.666,-0.73,1.25,-0.74,-0.24,-0.98,11.06,99.4,-90
6150,185.749,-0.68,1.33,-0.74,-0.24,-1.08,11.76,99.4,-90
6151,185.833,-0.76,1.23,-0.64,-0.20,-1.03,11.76,99.4,-90
6152,185.917,-0.73,1.22,-0.69,-0.24,-0.98,11.76,99.4,-90
6153,186.000,-0.73,1.32,-0.78,-0.24,-1.03,11.06,99.4,-90
6154,186.084,-0.80,1.22,-0.69,-0.24,-0.98,11.06,99.4,-90
6155,186.167,-0.79,1.26,-0.69,-0.24,-1.03,11.06,99.4,-90
6156,186.268,-0.81,1.27,-0.74,-0.15,-1.03,11.73,99.4,-90
6157,186.368,-0.77,1.29,-0.69,-0.15,-1.08,11.71,99.4,-90
6158,186.468,-0.80,1.25,-0.69,-0.15,-1.03,11.69,99.4,-90
6159,186.568,-0.80,1.23,-0.64,-0.24,-1.03,11.00,99.4,-90
6160,186.669,-0.84,1.29,-0.74,-0.24,-1.03,11.00,99.4,-90
6161,186.769,-0.85,1.23,-0.74,-0.15,-0.98,11.00,99.4,-90
6162,186.852,-0.72,1.28,-0.74,-0.20,-1.03,11.71,99.5,-89
6163,186.936,-0.81,1.26,-0.78,-0.15,-0.98,11.73,99.5,-89
6164,187.020,-0.73,1.27,-0.69,-0.29,-1.03,11.76,99.5,-89
6165,187.103,-0.73,1.25,-0.69,-0.20,-1.03,11.07,99.5,-89
6166,187.187,-0.83,1.27,-0.74,-0.15,-1.03,11.07,99.5,-89
6167,187.270,-0.76,1.30,-0.69,-0.24,-1.08,11.07,99.5,-89
6168,187.354,-0.63,1.29,-0.74,-0.24,-1.03,11.76,99.5,-91
6169,187.438,-0.67,1.21,-0.69,-0.20,-0.98,11.76,99.5,-91
6170,187.521,-0.79,1.25,-0.74,-0.24,-0.98,11.76,99.5,-91
6171,187.605,-0.79,1.26,-0.69,-0.24,-1.03,11.07,99.5,-91
6172,187.688,-0.85,1.33,-0.74,-0.24,-1.08,11.07,99.5,-91
6173,187.772,-0.83,1.24,-0.74,-0.20,-0.98,11.07,99.5,-91
6174,187.855,-0.79,1.24,-0.74,-0.20,-0.98,11.76,99.5,-91
6175,187.939,-0.83,1.26,-0.64,-0.15,-1.08,11.76,99.5,-91
6176,188.022,-0.81,1.32,-0.74,-0.20,-1.08,11.76,99.5,-91
6177,188.106,-0.81,1.23,-0.64,-0.20,-1.03,11.07,99.5,-91
6178,188.189,-0.90,1.21,-0.69,-0.20,-0.98,11.07,99.5,-91
6179,188.272,-0.88,1.28,-0.74,-0.20,-1.03,11.07,99.5,-91
6180,188.356,-0.83,1.24,-0.74,-0.20,-0.98,11.76,99.6,-90
6181,188.440,-0.86,1.28,-0.64,-0.24,-1.08,11.76,99.6,-90
6182,188.523,-0.87,1.26,-0.69,-0.24,-1.03,11.76,99.6,-90
6183,188.607,-0.87,1.15,-0.64,-0.20,-0.93,11.09,99.6,-90
6184,188.690,-0.82,1.25,-0.69,-0.20,-1.03,11.11,99.6,-90
6185,188.774,-0.80,1.29,-0.74,-0.24,-1.03,11.13,99.6,-90
6186,188.874,-0.73,1.28,-0.74,-0.20,-1.03,11.83,99.6,-89
6187,188.975,-0.86,1.24,-0.74,-0.20,-0.98,11.83,99.6,-89
6188,189.075,-0.88,1.21,-0.69,-0.15,-0.98,11.83,99.6,-89
6189,189.175,-0.88,1.26,-0.69,-0.24,-1.03,11.11,99.6,-89
6190,189.275,-0.99,1.28,-0.74,-0.20,-1.03,11.09,99.6,-89
6191,189.376,-0.91,1.29,-0.69,-0.20,-1.08,11.07,99.6,-89
6192,189.459,-0.85,1.26,-0.69,-0.24,-1.03,11.76,99.6,-90
6193,189.543,-0.84,1.26,-0.69,-0.24,-1.03,11.76,99.6,-90
6194,189.626,-0.83,1.30,-0.74,-0.29,-1.03,11.76,99.6,-90
6195,189.710,-0.83,1.25,-0.69,-0.20,-1.03,11.07,99.6,-90
6196,189.793,-0.88,1.25,-0.74,-0.24,-0.98,11.07,99.6,-90
6197,189.877,-0.84,1.27,-0.74,-0.15,-1.03,11.07,99.6,-90
6198,189.961,-0.82,1.27,-0.69,-0.29,-1.03,11.76,99.6,-88
6199,190.044,-0.91,1.29,-0.74,-0.24,-1.03,11.76,99.6,-88
6200,190.128,-0.85,1.26,-0.69,-0.24,-1.03,11.76,99.6,-88
6201,190.211,-0.85,1.32,-0.74,-0.20,-1.08,11.07,99.6,-88
6202,190.295,-0.81,1.27,-0.69,-0.29,-1.03,11.07,99.6,-88
6203,190.379,-0.72,1.28,-0.74,-0.20,-1.03,11.07,99.6,-88
6204,190.462,-0.72,1.29,-0.74,-0.24,-1.03,11.76,99.7,-88
6205,190.546,-0.76,1.28,-0.74,-0.20,-1.03,11.76,99.7,-88
6206,190.629,-0.77,1.29,-0.74,-0.24,-1.03,11.76,99.7,-88
6207,190.713,-0.77,1.21,-0.74,-0.24,-0.93,11.09,99.7,-88
6208,190.797,-0.84,1.27,-0.78,-0.20,-0.98,11.11,99.7,-88
6209,190.880,-0.86,1.29,-0.74,-0.24,-1.03,11.13,99.7,-88
6210,190.980,-0.78,1.32,-0.74,-0.20,-1.08,11.83,99.7,-88
6211,191.081,-0.86,1.25,-0.69,-0.20,-1.03,11.83,99.7,-88
6212,191.181,-0.87,1.28,-0.74,-0.20,-1.03,11.83,99.7,-88
6213,191.281,-0.87,1.38,-0.78,-0.15,-1.13,11.11,99.7,-88
6214,191.381,-0.84,1.25,-0.74,-0.24,-0.98,11.09,99.7,-88
6215,191.482,-0.92,1.29,-0.74,-0.24,-1.03,11.07,99.7,-88
6216,191.565,-0.87,1.32,-0.74,-0.20,-1.08,11.76,99.7,-89
6217,191.649,-0.84,1.22,-0.69,-0.24,-0.98,11.76,99.7,-89
6218,191.732,-0.86,1.22,-0.69,-0.24,-0.98,11.76,99.7,-89
6219,191.816,-0.86,1.29,-0.74,-0.24,-1.03,11.07,99.7,-89
6220,191.900,-0.88,1.24,-0.74,-0.20,-0.98,11.07,99.7,-89
6221,191.983,-0.85,1.29,-0.74,-0.24,-1.03,11.07,99.7,-89
6222,192.067,-0.78,1.26,-0.69,-0.24,-1.03,11.76,99.7,-89
6223,192.150,-0.73,1.25,-0.74,-0.24,-0.98,11.76,99.7,-89
6224,192.234,-0.73,1.27,-0.74,-0.15,-1.03,11.76,99.7,-89
6225,192.318,-0.73,1.31,-0.74,-0.15,-1.08,11.07,99.7,-89
6226,192.401,-0.79,1.21,-0.69,-0.20,-0.98,11.07,99.7,-89
6227,192.485,-0.76,1.28,-0.74,-0.20,-1.03,11.07,99.7,-89
6228,192.568,-0.76,1.24,-0.74,-0.20,-0.98,11.76,99.7,-88
6229,192.652,-0.83,1.25,-0.74,-0.24,-0.98,11.76,99.7,-88
6230,192.736,-0.86,1.26,-0.69,-0.24,-1.03,11.76,99.7,-88
6231,192.819,-0.86,1.29,-0.74,-0.24,-1.03,11.09,99.7,-88
6232,192.903,-0.84,1.28,-0.74,-0.20,-1.03,11.11,99.7,-88
6233,192.986,-0.84,1.21,-0.69,-0.20,-0.98,11.13,99.7,-88
6234,193.087,-0.77,1.26,-0.69,-0.24,-1.03,11.83,99.7,-90
6235,193.187,-0.73,1.29,-0.74,-0.24,-1.03,11.83,99.7,-90
6236,193.287,-0.73,1.22,-0.69,-0.24,-0.98,11.83,99.7,-90
6237,193.387,-0.73,1.28,-0.74,-0.20,-1.03,11.11,99.7,-90
6238,193.488,-0.75,1.21,-0.64,-0.29,-0.98,11.09,99.7,-90
6239,193.588,-0.75,1.21,-0.69,-0.20,-0.98,11.07,99.7,-90
6240,193.671,-0.75,1.27,-0.69,-0.29,-1.03,11.76,99.8,-88
6241,193.755,-0.77,1.28,-0.74,-0.20,-1.03,11.76,99.8,-88
6242,193.839,-0.72,1.25,-0.69,-0.20,-1.03,11.76,99.8,-88
6243,193.922,-0.72,1.22,-0.69,-0.24,-0.98,11.07,99.8,-88
6244,194.006,-0.85,1.29,-0.69,-0.20,-1.08,11.07,99.8,-88
6245,194.089,-0.81,1.27,-0.74,-0.15,-1.03,11.07,99.8,-88
6246,194.173,-0.81,1.31,-0.78,-0.20,-1.03,11.76,99.8,-88
6247,194.256,-0.80,1.26,-0.69,-0.24,-1.03,11.76,99.8,-88
6248,194.340,-0.81,1.28,-0.74,-0.20,-1.03,11.76,99.8,-88
