sid,time,altitude,acceleration,acceleration-X,acceleration-Y,acceleration-Z,SPS,Reliability,RSSI
16818,0.159,0.00,1.05,-1.03,0.20,-0.10,0.00,100.0,-55
16819,0.188,0.02,1.17,-1.13,0.29,-0.15,0.00,100.0,-55
16820,0.216,0.03,1.03,-0.98,0.29,-0.10,0.00,100.0,-55
16821,0.245,0.03,1.00,-0.98,0.20,-0.05,0.00,100.0,-55
16822,0.273,0.02,1.22,-1.18,0.29,-0.10,0.00,100.0,-55
16823,0.302,0.02,1.02,-0.98,0.29,0.00,0.00,100.0,-55
16824,0.762,0.05,1.07,-1.03,0.20,-0.20,9.94,100.0,-56
16825,0.791,0.04,1.08,-1.03,0.20,-0.24,9.49,100.0,-56
16826,0.820,0.06,1.06,-1.03,0.20,-0.15,9.08,100.0,-56
16827,0.848,0.06,1.04,-1.03,0.15,-0.10,8.71,100.0,-56
16828,0.877,0.02,1.11,-1.08,0.20,-0.15,8.36,100.0,-56
16829,0.905,0.05,1.10,-1.08,0.20,-0.10,8.04,100.0,-56
16830,1.268,0.09,1.13,-1.08,0.24,-0.24,10.82,100.0,-54
16831,1.296,-0.04,1.09,-1.03,0.24,-0.24,10.55,100.0,-54
16832,1.325,0.02,1.12,-1.08,0.24,-0.20,10.29,100.0,-54
16833,1.354,0.02,1.09,-1.03,0.24,-0.24,10.05,100.0,-54
16834,1.382,0.10,1.13,-1.08,0.24,-0.24,9.81,100.0,-54
16835,1.411,0.09,1.08,-1.03,0.24,-0.20,9.59,100.0,-54
16836,1.767,0.09,1.14,-1.08,0.29,-0.24,11.20,100.0,-55
16837,1.795,0.08,1.17,-1.08,0.34,-0.29,11.00,100.0,-55
16838,1.824,0.09,1.10,-1.03,0.29,-0.24,10.81,100.0,-55
16839,1.853,0.09,1.16,-1.08,0.34,-0.24,10.63,100.0,-55
16840,1.881,0.10,1.10,-1.03,0.29,-0.24,10.45,100.0,-55
16841,1.910,0.04,1.17,-1.08,0.29,-0.34,10.28,100.0,-55
16842,2.271,0.09,1.13,-1.08,0.29,-0.15,11.36,100.0,-56
16878,5.484,0.07,1.11,-0.98,0.34,-0.39,12.39,100.0,-53
16879,5.512,0.00,1.09,-0.98,0.34,-0.34,12.33,100.0,-53
16884,5.986,0.13,1.19,-1.08,0.24,-0.44,12.36,100.0,-54
16885,6.015,0.12,1.12,-1.03,0.29,-0.34,12.30,100.0,-54
16886,6.043,0.08,1.16,-1.03,0.29,-0.44,12.24,100.0,-54
16887,6.072,0.08,1.10,-0.98,0.29,-0.39,12.18,100.0,-54
16888,6.100,0.07,1.11,-0.98,0.29,-0.44,12.12,100.0,-54
16889,6.129,0.02,1.20,-1.08,0.39,-0.34,12.06,100.0,-54
16890,6.487,0.11,1.13,-1.08,0.29,-0.15,11.38,100.0,-54
16891,6.516,0.01,1.03,-0.98,0.29,-0.10,11.33,100.0,-54
16892,6.544,0.01,1.13,-1.08,0.29,-0.20,11.28,100.0,-54
16893,6.573,0.01,1.05,-0.98,0.24,-0.29,11.23,100.0,-54
16894,6.602,0.11,1.11,-1.03,0.24,-0.34,11.18,100.0,-54
16895,6.630,0.10,1.16,-1.08,0.24,-0.34,11.13,100.0,-54
16896,6.989,0.11,1.17,-1.08,0.29,-0.34,11.42,100.0,-54
16897,7.018,0.03,1.14,-1.03,0.34,-0.34,11.37,100.0,-54
16898,7.047,0.06,1.17,-1.08,0.34,-0.29,11.33,100.0,-54
16899,7.075,0.06,1.14,-1.03,0.34,-0.34,11.28,100.0,-54
16900,7.104,0.07,1.11,-1.03,0.39,-0.15,11.23,100.0,-54
16901,7.132,0.03,1.15,-1.08,0.39,-0.10,11.19,100.0,-54
16902,7.595,0.08,1.10,-1.03,0.29,-0.24,11.30,100.0,-55
16903,7.624,0.01,1.09,-1.03,0.34,-0.10,11.25,100.0,-55
16904,7.652,0.01,1.11,-1.03,0.39,-0.10,11.21,100.0,-55
16905,7.681,0.01,1.17,-1.08,0.44,-0.05,11.17,100.0,-55
16906,7.710,-0.08,1.12,-0.98,0.54,-0.05,11.13,100.0,-55
16907,7.738,0.02,1.08,-0.93,0.54,-0.05,11.08,100.0,-55
16908,8.098,0.07,1.07,-1.03,0.29,-0.10,11.34,100.0,-55
16909,8.126,0.03,1.07,-1.03,0.29,-0.05,11.30,100.0,-55
16910,8.155,0.07,1.09,-1.03,0.34,-0.05,11.26,100.0,-55
16911,8.183,0.07,1.03,-0.98,0.29,-0.15,11.22,100.0,-55
16912,8.212,0.03,1.10,-1.03,0.29,-0.24,11.18,100.0,-55
16913,8.240,0.14,1.06,-0.98,0.29,-0.29,11.14,100.0,-55
16914,8.600,0.18,1.12,-1.08,0.29,-0.05,11.37,100.0,-56
16915,8.629,0.08,1.11,-1.03,0.39,-0.15,11.33,100.0,-56
16916,8.657,0.12,1.14,-1.08,0.34,-0.10,11.30,100.0,-56
16917,8.686,0.12,1.09,-1.03,0.34,-0.10,11.26,100.0,-56
16918,8.714,0.10,1.07,-1.03,0.29,-0.10,11.22,100.0,-56
16919,8.743,0.11,1.08,-1.03,0.29,-0.15,11.18,100.0,-56
16920,9.102,0.18,1.08,-1.03,0.24,-0.20,11.41,100.0,-56
16921,9.131,0.13,1.09,-1.03,0.29,-0.20,11.37,100.0,-56
16922,9.160,0.11,1.08,-1.03,0.24,-0.20,11.33,100.0,-56
16923,9.188,0.11,1.10,-1.03,0.29,-0.24,11.30,100.0,-56
16924,9.217,0.17,1.11,-1.03,0.24,-0.34,11.26,100.0,-56
16925,9.245,0.14,1.18,-1.08,0.29,-0.39,11.23,100.0,-56
16926,9.705,0.18,1.07,-1.03,0.10,-0.29,11.31,100.0,-56
16927,9.733,0.14,1.13,-1.03,0.15,-0.44,11.28,100.0,-56
16928,9.762,0.08,1.16,-1.03,0.20,-0.49,11.25,100.0,-56
16929,9.791,0.08,1.16,-1.03,0.20,-0.49,11.21,100.0,-56
16930,9.819,0.09,1.15,-1.03,0.24,-0.44,11.18,100.0,-56
16931,9.848,0.13,1.21,-1.08,0.24,-0.49,11.15,100.0,-56
16932,10.207,0.18,1.11,-1.03,0.29,-0.29,11.35,100.0,-55
16933,10.236,0.20,1.13,-1.08,0.29,-0.20,11.31,100.0,-55
16934,10.264,0.15,1.16,-1.08,0.29,-0.29,11.28,100.0,-55
16935,10.293,0.15,1.14,-1.08,0.24,-0.29,11.25,100.0,-55
16936,10.322,0.16,1.09,-1.03,0.24,-0.24,11.22,100.0,-55
16937,10.350,0.16,1.09,-1.03,0.24,-0.24,11.19,100.0,-55
16938,10.710,0.18,1.07,-1.03,0.24,-0.15,11.37,100.0,-57
16939,10.739,0.20,1.13,-1.08,0.29,-0.20,11.34,100.0,-57
16940,10.767,0.19,1.03,-0.98,0.29,-0.10,11.31,100.0,-57
16941,10.796,0.19,1.03,-0.98,0.29,-0.15,11.28,100.0,-57
16942,10.824,0.19,1.04,-0.98,0.29,-0.20,11.25,100.0,-57
16943,10.853,0.20,1.06,-1.03,0.24,-0.10,11.22,100.0,-57
16944,11.212,0.24,1.15,-1.08,0.34,-0.20,11.40,100.0,-56
16945,11.241,0.20,1.08,-1.03,0.29,-0.15,11.37,100.0,-56
16946,11.269,0.20,1.03,-0.98,0.29,-0.10,11.34,100.0,-56
16947,11.298,0.20,1.09,-1.03,0.34,-0.15,11.31,100.0,-56
16948,11.327,0.16,1.09,-1.03,0.34,-0.15,11.28,100.0,-56
16949,11.355,0.19,1.07,-1.03,0.29,-0.10,11.25,100.0,-56
16950,11.714,0.24,1.12,-1.08,0.29,-0.05,11.42,100.0,-55
16951,11.743,0.22,1.07,-1.03,0.29,-0.10,11.40,100.0,-55
16952,11.772,0.29,1.08,-1.03,0.29,-0.15,11.37,100.0,-55
16953,11.800,0.29,1.07,-1.03,0.29,-0.10,11.34,100.0,-55
16954,11.829,0.22,1.04,-0.98,0.34,-0.10,11.31,100.0,-55
16955,11.857,0.23,1.14,-1.08,0.29,-0.24,11.28,100.0,-55
16956,12.317,0.28,1.08,-1.03,0.29,-0.15,11.35,100.0,-55
16957,12.346,0.24,1.09,-1.03,0.34,-0.15,11.35,100.0,-55
16958,12.374,0.31,1.09,-1.03,0.34,-0.15,11.35,100.0,-55
16959,12.403,0.31,1.07,-1.03,0.24,-0.15,11.35,100.0,-55
16960,12.431,0.30,1.03,-0.98,0.29,-0.10,11.35,100.0,-55
16961,12.460,0.25,1.07,-1.03,0.24,-0.15,11.35,100.0,-55
16962,12.819,0.32,1.12,-1.08,0.24,-0.20,11.45,100.0,-55
16963,12.848,0.34,1.07,-1.03,0.29,-0.10,11.45,100.0,-55
16964,12.876,0.32,1.07,-0.98,0.39,-0.20,11.45,100.0,-55
16965,12.905,0.32,1.16,-1.08,0.39,-0.20,11.45,100.0,-55
16966,12.934,0.32,1.14,-1.03,0.39,-0.29,11.45,100.0,-55
16967,12.962,0.29,1.12,-1.03,0.44,-0.10,11.45,100.0,-55
16968,13.322,0.36,1.19,-1.13,0.34,-0.20,11.45,100.0,-54
16969,13.350,0.29,1.06,-0.98,0.29,-0.29,11.45,100.0,-54
16970,13.379,0.29,1.14,-1.08,0.29,-0.24,11.45,100.0,-54
16971,13.408,0.29,1.16,-1.08,0.29,-0.29,11.45,100.0,-54
16972,13.436,0.21,1.21,-1.13,0.34,-0.29,11.45,100.0,-54
16973,13.465,0.25,1.20,-1.13,0.34,-0.24,11.45,100.0,-54
16974,13.823,0.27,1.20,-1.08,0.20,-0.49,11.45,100.0,-54
16975,13.852,0.24,1.12,-1.03,0.20,-0.39,11.45,100.0,-54
16976,13.880,0.27,1.06,-0.98,0.29,-0.29,11.45,100.0,-54
16977,13.909,0.27,1.11,-1.03,0.24,-0.34,11.45,100.0,-54
16978,13.937,0.20,1.18,-1.13,0.29,-0.20,11.45,100.0,-54
16979,13.966,0.21,1.13,-1.08,0.29,-0.15,11.45,100.0,-54
16980,14.425,0.28,1.09,-1.03,0.20,-0.29,11.36,100.0,-54
16981,14.453,0.28,1.08,-1.03,0.15,-0.29,10.70,100.0,-54
16982,14.482,0.26,1.00,-0.93,0.20,-0.29,10.70,100.0,-54
16983,14.510,0.26,1.11,-1.08,0.15,-0.24,10.56,100.0,-54
16984,14.539,0.24,1.11,-1.08,0.10,-0.24,10.56,100.0,-54
16985,14.567,0.29,1.10,-1.08,0.15,-0.15,10.56,100.0,-54
16986,14.928,0.29,1.17,-1.03,0.10,-0.54,10.84,100.0,-54
16987,14.956,0.22,1.11,-1.03,0.24,-0.34,10.84,100.0,-54
16988,14.985,0.21,1.07,-1.03,0.29,-0.10,10.84,100.0,-54
16989,15.014,0.21,1.06,-1.03,0.24,-0.05,11.26,100.0,-54
16990,15.042,0.17,1.05,-1.03,0.20,-0.05,11.26,100.0,-54
16991,15.071,0.20,1.14,-1.13,0.10,-0.10,11.26,100.0,-54
16992,15.428,0.23,1.08,-1.03,0.20,-0.24,11.52,100.0,-54
16993,15.457,0.23,1.08,-1.03,0.20,-0.24,11.52,100.0,-54
16994,15.486,0.22,1.06,-1.03,0.15,-0.20,11.52,100.0,-54
16995,15.514,0.22,1.05,-1.03,0.10,-0.20,11.26,100.0,-54
16996,15.543,0.21,1.10,-1.08,0.10,-0.20,11.26,100.0,-54
16997,15.571,0.19,1.07,-1.03,0.05,-0.29,11.26,100.0,-54
16998,15.933,0.20,1.15,-1.08,0.20,-0.34,11.52,100.0,-53
16999,15.961,0.20,1.13,-1.08,0.24,-0.24,11.52,100.0,-53
17000,15.990,0.20,1.07,-1.03,0.15,-0.24,11.52,100.0,-53
17001,16.018,0.20,1.09,-1.03,0.20,-0.29,11.40,100.0,-53
17002,16.047,0.22,1.09,-1.03,0.20,-0.29,11.40,100.0,-53
17003,16.076,0.18,1.18,-1.08,0.34,-0.34,11.40,100.0,-53
17004,16.535,0.27,1.11,-1.08,0.20,-0.20,11.52,100.0,-53
17005,16.564,0.25,1.08,-1.03,0.20,-0.24,11.52,100.0,-53
17006,16.592,0.28,1.11,-1.08,0.20,-0.20,11.52,100.0,-53
17007,16.621,0.28,1.13,-1.08,0.24,-0.24,11.26,100.0,-53
17008,16.650,0.19,1.02,-0.98,0.20,-0.20,11.26,100.0,-53
17009,16.678,0.20,1.06,-1.03,0.20,-0.15,11.26,100.0,-53
17010,17.038,0.22,1.11,-1.08,0.24,-0.15,11.52,100.0,-54
17011,17.066,0.22,1.04,-0.98,0.24,-0.24,11.52,100.0,-54
17012,17.095,0.24,1.11,-1.08,0.24,-0.10,11.52,100.0,-54
17013,17.123,0.24,1.05,-1.03,0.20,-0.05,11.26,100.0,-54
17014,17.152,0.22,1.10,-1.08,0.20,0.00,11.26,100.0,-54
17015,17.180,0.17,1.05,-1.03,0.20,-0.10,11.26,100.0,-54
17016,17.540,0.14,1.11,-1.08,0.15,-0.24,11.52,100.0,-53
17017,17.568,0.18,1.13,-1.08,0.15,-0.29,11.52,100.0,-53
17018,17.597,0.21,1.09,-1.03,0.20,-0.29,11.52,100.0,-53
17019,17.626,0.21,1.10,-1.03,0.20,-0.34,11.26,100.0,-53
17020,17.654,0.16,1.02,-0.98,0.20,-0.20,11.26,100.0,-53
17021,17.683,0.16,1.07,-1.03,0.20,-0.20,11.26,100.0,-53
17022,18.042,0.25,1.12,-1.08,0.24,-0.20,11.52,100.0,-54
17023,18.071,0.22,1.09,-1.03,0.29,-0.20,11.52,100.0,-54
17024,18.099,0.15,1.13,-1.08,0.29,-0.15,11.52,100.0,-54
17025,18.128,0.15,1.13,-1.08,0.29,-0.15,11.40,100.0,-54
17026,18.157,0.07,1.08,-1.03,0.24,-0.20,11.40,100.0,-54
17027,18.185,0.13,1.19,-1.13,0.29,-0.24,11.40,100.0,-54
17028,18.545,0.15,1.13,-1.08,0.24,-0.24,11.65,100.0,-54
17029,18.573,0.06,1.06,-1.03,0.20,-0.15,11.65,100.0,-54
17030,18.602,0.17,1.11,-1.08,0.24,-0.15,11.65,100.0,-54
17031,18.630,0.17,1.09,-1.08,0.10,-0.10,11.40,100.0,-54
17032,18.659,0.06,1.11,-1.08,0.24,-0.15,11.40,100.0,-54
17033,18.688,0.09,1.10,-1.08,0.20,-0.10,11.40,100.0,-54
17034,19.147,0.15,1.19,-1.13,0.24,-0.29,11.52,100.0,-55
17035,19.176,0.22,1.07,-1.03,0.20,-0.20,11.52,100.0,-55
17036,19.204,0.21,1.08,-1.03,0.24,-0.20,11.52,100.0,-55
17037,19.233,0.21,1.06,-1.03,0.15,-0.20,11.26,100.0,-55
17038,19.261,0.20,1.08,-1.03,0.20,-0.24,11.26,100.0,-55
17039,19.290,0.20,1.11,-1.08,0.20,-0.15,11.26,100.0,-55
17040,19.649,0.23,1.12,-1.08,0.20,-0.24,11.52,100.0,-53
17041,19.678,0.16,1.09,-1.03,0.20,-0.29,11.52,100.0,-53
17042,19.707,0.17,1.07,-1.03,0.20,-0.20,11.52,100.0,-53
17043,19.735,0.17,1.06,-1.03,0.15,-0.20,11.26,100.0,-53
17044,19.764,0.09,1.12,-1.08,0.24,-0.20,11.26,100.0,-53
17045,19.792,0.11,1.12,-1.08,0.20,-0.24,11.26,100.0,-53
17046,20.152,0.28,1.07,-1.03,0.20,-0.20,11.52,100.0,-53
17047,20.180,0.25,1.08,-1.03,0.20,-0.24,11.52,100.0,-53
17048,20.209,0.23,1.07,-1.03,0.20,-0.20,11.52,100.0,-53
17049,20.238,0.23,1.08,-1.03,0.20,-0.24,11.26,100.0,-53
17050,20.266,0.15,1.03,-0.98,0.20,-0.24,11.26,100.0,-53
17051,20.295,0.20,1.13,-1.08,0.24,-0.24,11.26,100.0,-53
17052,20.654,0.28,1.11,-1.08,0.15,-0.20,11.52,100.0,-53
17053,20.683,0.18,1.05,-1.03,0.20,-0.10,11.52,100.0,-53
17054,20.711,0.18,1.11,-1.08,0.20,-0.15,11.52,100.0,-53
17055,20.740,0.18,1.07,-1.03,0.20,-0.20,11.40,100.0,-53
17056,20.769,0.19,1.05,-1.03,0.15,-0.15,11.40,100.0,-53
17057,20.797,0.20,1.01,-0.98,0.15,-0.20,11.40,100.0,-53
17058,21.258,0.20,1.10,-1.08,0.15,-0.15,11.52,100.0,-54
17059,21.286,0.17,1.11,-1.08,0.20,-0.15,11.52,100.0,-54
17060,21.315,0.12,1.11,-1.08,0.20,-0.20,11.52,100.0,-54
17061,21.343,0.12,1.01,-0.98,0.15,-0.20,11.26,100.0,-54
17062,21.372,0.06,1.05,-1.03,0.20,-0.10,11.26,100.0,-54
17063,21.400,0.10,1.06,-1.03,0.20,-0.15,11.26,100.0,-54
17064,21.759,0.14,1.10,-1.08,0.15,-0.15,11.52,100.0,-54
17065,21.787,0.08,1.11,-1.08,0.15,-0.20,11.52,100.0,-54
17066,21.816,0.10,1.06,-1.03,0.20,-0.15,11.52,100.0,-54
17067,21.845,0.10,1.11,-1.08,0.20,-0.20,11.26,100.0,-54
17068,21.873,0.13,1.11,-1.08,0.20,-0.15,11.26,100.0,-54
17069,21.902,0.10,1.13,-1.08,0.24,-0.24,11.26,100.0,-54
17070,22.262,0.14,1.11,-1.08,0.20,-0.20,11.52,100.0,-58
17071,22.291,0.07,1.15,-1.13,0.20,-0.15,11.52,100.0,-58
17072,22.319,0.08,1.12,-1.08,0.24,-0.20,11.52,100.0,-58
17073,22.348,0.08,1.05,-1.03,0.20,-0.10,11.26,100.0,-58
17074,22.377,0.13,1.04,-1.03,0.15,-0.10,11.26,100.0,-58
17075,22.405,0.10,1.06,-1.03,0.15,-0.20,11.26,100.0,-58
17076,22.762,0.19,1.11,-1.08,0.15,-0.20,11.52,100.0,-59
17077,22.790,0.19,1.08,-1.03,0.20,-0.24,11.52,100.0,-59
17078,22.819,0.17,1.04,-0.98,0.24,-0.24,11.52,100.0,-59
17079,22.847,0.17,1.11,-1.08,0.20,-0.15,11.40,100.0,-59
17080,22.876,0.10,1.09,-1.03,0.24,-0.24,11.40,100.0,-59
17081,22.904,0.12,1.11,-1.08,0.24,-0.10,11.40,100.0,-59
17082,23.366,0.13,1.11,-1.08,0.15,-0.20,11.52,100.0,-59
17083,23.394,0.05,1.07,-1.03,0.20,-0.20,11.52,100.0,-59
17084,23.423,0.02,1.08,-1.03,0.20,-0.24,11.52,100.0,-59
17085,23.452,0.02,1.07,-1.03,0.20,-0.20,11.26,100.0,-59
17086,23.480,0.07,1.07,-1.03,0.20,-0.20,11.26,100.0,-59
17087,23.509,0.06,1.07,-1.03,0.20,-0.20,11.26,100.0,-59
17088,23.868,0.12,1.06,-1.03,0.15,-0.20,11.52,100.0,-58
17089,23.897,0.10,1.08,-1.03,0.20,-0.24,11.52,100.0,-58
17090,23.925,0.13,1.07,-1.03,0.15,-0.24,11.52,100.0,-58
17091,23.954,0.13,1.07,-1.03,0.20,-0.20,11.26,100.0,-58
17092,23.983,0.10,1.12,-1.08,0.24,-0.20,11.26,100.0,-58
17093,24.011,0.12,1.08,-1.03,0.20,-0.24,11.26,100.0,-58
17094,24.371,0.15,1.06,-1.03,0.15,-0.20,11.52,100.0,-67
17095,24.399,0.14,1.06,-1.03,0.10,-0.24,11.52,100.0,-67
17096,24.428,0.02,1.11,-1.08,0.15,-0.20,11.52,100.0,-67
17097,24.456,0.02,1.05,-1.03,0.15,-0.15,11.26,100.0,-67
17098,24.485,0.07,1.01,-0.98,0.15,-0.20,11.26,100.0,-67
17099,24.513,0.05,1.12,-1.08,0.20,-0.24,11.26,100.0,-67
17100,24.873,0.09,1.11,-1.08,0.15,-0.24,11.52,100.0,-59
17101,24.901,0.05,1.12,-1.08,0.20,-0.24,11.52,100.0,-59
17102,24.930,0.11,1.12,-1.08,0.24,-0.20,11.52,100.0,-59
17103,24.959,0.11,1.11,-1.08,0.24,-0.15,11.40,100.0,-59
17104,24.987,0.10,1.07,-1.03,0.20,-0.20,11.40,100.0,-59
17105,25.016,0.09,1.08,-1.03,0.20,-0.24,11.40,100.0,-59
17106,25.375,0.08,1.11,-1.08,0.20,-0.15,11.65,100.0,-55
17107,25.404,0.05,1.07,-1.03,0.20,-0.20,11.65,100.0,-55
17108,25.432,0.11,1.07,-1.03,0.20,-0.20,11.65,100.0,-55
17109,25.461,0.11,1.08,-1.03,0.24,-0.20,11.40,100.0,-55
17110,25.490,0.06,1.04,-1.03,0.15,-0.10,11.40,100.0,-55
17111,25.518,0.01,1.11,-1.08,0.15,-0.20,11.40,100.0,-55
17112,25.978,0.05,1.11,-1.08,0.15,-0.20,11.52,100.0,-55
17113,26.006,-0.01,1.08,-1.03,0.20,-0.24,11.52,100.0,-55
17114,26.035,0.02,1.06,-1.03,0.15,-0.20,11.52,100.0,-55
17115,26.063,0.02,1.11,-1.08,0.20,-0.20,11.26,100.0,-55
17116,26.092,0.01,1.07,-1.03,0.20,-0.20,11.26,100.0,-55
17117,26.120,0.06,1.11,-1.08,0.20,-0.20,11.26,100.0,-55
17118,26.480,0.09,1.07,-1.03,0.20,-0.20,11.52,100.0,-56
17119,26.509,0.07,1.02,-0.98,0.20,-0.20,11.52,100.0,-56
17120,26.537,-0.02,1.06,-1.03,0.20,-0.15,11.52,100.0,-56
17121,26.566,-0.02,1.11,-1.08,0.24,-0.10,11.26,100.0,-56
17122,26.594,-0.07,1.11,-1.08,0.20,-0.20,11.26,100.0,-56
17123,26.623,0.00,1.01,-0.98,0.15,-0.20,11.26,100.0,-56
17124,26.982,0.10,1.07,-1.03,0.15,-0.24,11.52,100.0,-58
17125,27.011,0.08,1.07,-1.03,0.24,-0.15,11.52,100.0,-58
17126,27.039,0.07,1.11,-1.08,0.20,-0.20,11.52,100.0,-58
17127,27.068,0.07,1.11,-1.08,0.20,-0.15,11.26,100.0,-58
17128,27.097,0.05,1.06,-1.03,0.15,-0.20,11.26,100.0,-58
17129,27.125,0.10,1.07,-1.03,0.15,-0.24,11.26,100.0,-58
17130,27.485,0.14,1.07,-1.03,0.20,-0.20,11.52,100.0,-65
17131,27.513,0.13,1.09,-1.03,0.24,-0.24,11.52,100.0,-65
17132,27.542,0.16,1.07,-1.03,0.20,-0.20,11.52,100.0,-65
17133,27.570,0.16,1.12,-1.08,0.24,-0.20,11.40,100.0,-65
17134,27.599,0.08,1.07,-1.03,0.20,-0.20,11.40,100.0,-65
17135,27.628,0.13,1.05,-1.03,0.15,-0.15,11.40,100.0,-65
17136,28.086,0.19,1.07,-1.03,0.20,-0.20,11.52,100.0,-71
17137,28.115,0.10,1.11,-1.08,0.20,-0.20,11.52,100.0,-71
17138,28.143,0.15,1.10,-1.08,0.20,-0.10,11.52,100.0,-71
17139,28.172,0.15,1.06,-1.03,0.20,-0.15,11.26,100.0,-71
17140,28.200,0.12,1.06,-1.03,0.15,-0.20,11.26,100.0,-71
17141,28.229,0.15,1.11,-1.08,0.20,-0.15,11.26,100.0,-71
17142,28.588,0.10,1.07,-1.03,0.20,-0.20,11.52,100.0,-61
17143,28.617,0.02,1.05,-1.03,0.15,-0.15,11.52,100.0,-61
17144,28.645,0.06,1.13,-1.08,0.20,-0.29,11.52,100.0,-61
17145,28.674,0.06,1.13,-1.08,0.29,-0.20,11.26,100.0,-61
17146,28.703,0.10,1.11,-1.08,0.24,-0.15,11.26,100.0,-61
17147,28.731,0.13,1.06,-1.03,0.20,-0.15,11.26,100.0,-61
17148,29.091,0.18,1.07,-1.03,0.20,-0.20,11.52,100.0,-60
17149,29.119,0.15,1.10,-1.08,0.20,-0.10,11.52,100.0,-60
17150,29.148,0.14,1.11,-1.08,0.24,-0.15,11.52,100.0,-60
17151,29.176,0.14,1.11,-1.08,0.15,-0.24,11.26,100.0,-60
17152,29.205,0.12,1.08,-1.03,0.20,-0.24,11.26,100.0,-60
17153,29.234,0.16,1.07,-1.03,0.20,-0.20,11.26,100.0,-60
17154,29.592,0.22,1.08,-1.03,0.20,-0.24,11.52,100.0,-63
17155,29.621,0.19,1.05,-1.03,0.15,-0.15,11.52,100.0,-63
17156,29.649,0.21,1.05,-1.03,0.15,-0.15,11.52,100.0,-63
17157,29.678,0.21,1.13,-1.08,0.24,-0.24,11.40,100.0,-63
17158,29.706,0.11,1.11,-1.08,0.20,-0.15,11.40,100.0,-63
17159,29.735,0.13,1.09,-1.03,0.24,-0.24,11.40,100.0,-63
17160,30.195,0.19,1.07,-1.03,0.20,-0.20,11.52,100.0,-60
17161,30.224,0.12,1.06,-1.03,0.20,-0.15,11.52,100.0,-60
17162,30.253,0.16,1.11,-1.08,0.20,-0.20,11.52,100.0,-60
17163,30.281,0.16,1.11,-1.08,0.24,-0.15,11.26,100.0,-60
17164,30.310,0.18,1.12,-1.08,0.24,-0.20,11.26,100.0,-60
17165,30.338,0.22,1.07,-1.03,0.20,-0.20,11.26,100.0,-60
17166,30.698,0.27,1.11,-1.08,0.20,-0.15,11.52,100.0,-60
17167,30.726,0.19,1.11,-1.08,0.20,-0.15,11.52,100.0,-60
17168,30.755,0.19,1.07,-1.03,0.20,-0.20,11.52,100.0,-60
17169,30.783,0.19,1.04,-1.03,0.15,-0.10,11.27,100.0,-60
17170,30.812,0.12,1.06,-1.03,0.20,-0.15,11.27,100.0,-60
17171,30.841,0.18,1.01,-0.98,0.20,-0.15,11.27,100.0,-60
17172,31.200,0.23,1.11,-1.08,0.15,-0.24,11.52,100.0,-54
17173,31.229,0.27,1.11,-1.08,0.20,-0.15,11.52,100.0,-54
17174,31.257,0.27,1.07,-1.03,0.20,-0.20,11.52,100.0,-54
17175,31.286,0.27,1.11,-1.08,0.20,-0.20,11.26,100.0,-54
17176,31.314,0.24,1.11,-1.08,0.20,-0.20,11.26,100.0,-54
17177,31.343,0.17,1.06,-1.03,0.20,-0.15,11.26,100.0,-54
17178,31.702,0.27,1.10,-1.08,0.15,-0.15,11.52,100.0,-54
17179,31.731,0.20,1.01,-0.98,0.20,-0.15,11.52,100.0,-54
17180,31.760,0.20,1.14,-1.08,0.29,-0.24,11.52,100.0,-54
17181,31.788,0.20,1.11,-1.08,0.20,-0.15,11.40,100.0,-54
17182,31.817,0.15,1.09,-1.03,0.24,-0.24,11.40,100.0,-54
17183,31.845,0.13,1.09,-1.03,0.24,-0.24,11.40,100.0,-54
17184,32.206,0.15,1.13,-1.08,0.24,-0.24,11.65,100.0,-55
17185,32.234,0.15,1.14,-1.08,0.24,-0.29,11.65,100.0,-55
17186,32.263,0.13,1.10,-1.03,0.29,-0.24,11.65,100.0,-55
17187,32.291,0.13,1.09,-1.03,0.24,-0.24,11.40,100.0,-55
17188,32.320,0.15,1.09,-1.03,0.24,-0.24,11.40,100.0,-55
17189,32.348,0.13,1.13,-1.08,0.24,-0.24,11.40,100.0,-55
17190,32.808,0.15,1.11,-1.08,0.24,-0.10,11.52,100.0,-57
17191,32.836,0.09,1.07,-1.03,0.24,-0.15,11.52,100.0,-57
17192,32.865,0.09,1.09,-1.03,0.24,-0.24,11.52,100.0,-57
17193,32.894,0.09,1.08,-1.03,0.20,-0.24,11.26,100.0,-57
17194,32.922,0.00,1.11,-1.08,0.20,-0.20,11.26,100.0,-57
17195,32.951,0.04,1.13,-1.08,0.20,-0.29,11.26,100.0,-57
17196,33.310,0.11,1.12,-1.08,0.24,-0.20,11.52,100.0,-57
17197,33.339,0.08,1.11,-1.08,0.24,-0.15,11.52,100.0,-57
17198,33.367,0.06,1.12,-1.08,0.24,-0.20,11.52,100.0,-57
17199,33.396,0.06,1.10,-1.03,0.29,-0.24,11.26,100.0,-57
17200,33.424,0.05,1.09,-1.03,0.24,-0.24,11.26,100.0,-57
17201,33.453,0.08,1.07,-1.03,0.20,-0.20,11.26,100.0,-57
17202,33.813,0.21,1.07,-1.03,0.29,-0.10,11.52,100.0,-57
17203,33.841,0.11,1.04,-0.98,0.29,-0.20,11.52,100.0,-57
17204,33.870,0.09,1.05,-0.98,0.29,-0.24,11.52,100.0,-57
17205,33.899,0.09,1.11,-1.08,0.24,-0.10,11.26,100.0,-57
17206,33.927,0.06,1.09,-1.03,0.29,-0.20,11.26,100.0,-57
17207,33.956,0.11,1.19,-1.13,0.34,-0.20,11.26,100.0,-57
17208,34.313,0.18,1.11,-1.08,0.24,-0.15,11.52,100.0,-57
17209,34.341,0.14,1.12,-1.08,0.24,-0.20,11.52,100.0,-57
17210,34.370,0.14,1.12,-1.08,0.24,-0.20,11.52,100.0,-57
17211,34.399,0.14,1.09,-1.03,0.29,-0.20,11.40,100.0,-57
17212,34.427,0.13,1.11,-1.08,0.20,-0.20,11.40,100.0,-57
17213,34.456,0.20,1.09,-1.03,0.24,-0.24,11.40,100.0,-57
17214,34.917,0.27,1.11,-1.08,0.20,-0.20,11.52,100.0,-56
17215,34.946,0.15,1.12,-1.08,0.24,-0.20,11.52,100.0,-56
17216,34.974,0.18,1.06,-1.03,0.20,-0.15,11.52,100.0,-56
17217,35.003,0.18,1.11,-1.08,0.20,-0.20,11.26,100.0,-56
17218,35.031,0.13,1.11,-1.08,0.20,-0.20,11.26,100.0,-56
17219,35.060,0.16,1.08,-1.03,0.20,-0.24,11.26,100.0,-56
17220,35.419,0.29,1.11,-1.08,0.15,-0.20,11.52,100.0,-57
17221,35.448,0.28,1.05,-1.03,0.15,-0.15,11.52,100.0,-57
17222,35.477,0.32,1.17,-1.13,0.24,-0.20,11.52,100.0,-57
17223,35.505,0.32,1.11,-1.08,0.24,-0.15,11.26,100.0,-57
17224,35.534,0.19,1.15,-1.13,0.20,-0.10,11.26,100.0,-57
17225,35.562,0.14,1.01,-0.98,0.20,-0.15,11.26,100.0,-57
17226,35.922,0.23,1.30,-1.18,0.54,-0.15,11.52,100.0,-58
17227,35.950,0.18,1.01,-0.98,0.24,-0.10,11.52,100.0,-58
17228,35.979,0.24,1.11,-1.08,0.20,-0.20,11.52,100.0,-58
17229,36.007,0.24,1.11,-1.08,0.24,-0.15,11.26,100.0,-58
17230,36.036,0.21,1.11,-1.08,0.20,-0.15,11.26,100.0,-58
17231,36.064,0.25,1.07,-1.03,0.24,-0.15,11.26,100.0,-58
17232,36.424,0.22,1.11,-1.08,0.15,-0.20,11.52,100.0,-58
17233,36.453,0.22,1.07,-1.03,0.20,-0.20,11.52,100.0,-58
17234,36.481,0.16,1.11,-1.08,0.15,-0.20,11.52,100.0,-58
17235,36.510,0.16,1.06,-1.03,0.20,-0.15,11.40,100.0,-58
17236,36.538,0.09,1.06,-1.03,0.20,-0.15,11.40,100.0,-58
17237,36.567,0.18,1.11,-1.08,0.20,-0.15,11.40,100.0,-58
17238,37.026,0.26,1.06,-1.03,0.15,-0.20,11.52,100.0,-56
17239,37.055,0.22,1.07,-1.03,0.20,-0.20,11.52,100.0,-56
17240,37.083,0.21,1.05,-1.03,0.15,-0.15,11.52,100.0,-56
17241,37.112,0.21,1.11,-1.08,0.20,-0.20,11.26,100.0,-56
17242,37.141,0.11,1.07,-1.03,0.24,-0.15,11.26,100.0,-56
17243,37.169,0.12,1.07,-1.03,0.24,-0.15,11.26,100.0,-56
17244,37.529,0.26,1.11,-1.08,0.15,-0.24,11.52,100.0,-56
17245,37.557,0.13,1.11,-1.08,0.20,-0.20,11.52,100.0,-56
17246,37.586,0.15,1.06,-1.03,0.20,-0.15,11.52,100.0,-56
17247,37.614,0.15,1.06,-1.03,0.20,-0.15,11.26,100.0,-56
17248,37.643,0.16,1.11,-1.08,0.20,-0.20,11.26,100.0,-56
17249,37.672,0.13,1.12,-1.08,0.20,-0.24,11.26,100.0,-56
17250,38.031,0.15,1.18,-1.13,0.24,-0.24,11.52,100.0,-56
17251,38.060,0.09,1.07,-1.03,0.20,-0.20,11.52,100.0,-56
17252,38.088,0.08,1.08,-1.03,0.24,-0.20,11.52,100.0,-56
17253,38.117,0.08,1.13,-1.08,0.24,-0.24,11.26,100.0,-56
17254,38.145,0.08,1.15,-1.13,0.20,-0.15,11.26,100.0,-56
17255,38.174,0.15,1.06,-1.03,0.20,-0.15,11.26,100.0,-56
17256,38.533,0.20,1.09,-1.08,0.15,-0.10,11.52,100.0,-55
17257,38.562,0.16,1.13,-1.08,0.24,-0.24,11.52,100.0,-55
17258,38.591,0.10,1.01,-0.98,0.15,-0.20,11.52,100.0,-55
17259,38.619,0.10,1.09,-1.03,0.24,-0.24,11.40,100.0,-55
17260,38.648,0.08,1.12,-1.08,0.20,-0.24,11.40,100.0,-55
17261,38.676,0.11,1.09,-1.03,0.24,-0.24,11.40,100.0,-55
17262,39.037,0.17,1.12,-1.08,0.24,-0.20,11.65,100.0,-55
17263,39.065,0.13,1.01,-0.98,0.15,-0.20,11.65,100.0,-55
17264,39.094,0.13,1.02,-0.98,0.20,-0.20,11.65,100.0,-55
17265,39.122,0.13,1.06,-1.03,0.15,-0.20,11.40,100.0,-55
17266,39.151,0.17,1.09,-1.03,0.24,-0.24,11.40,100.0,-55
17267,39.179,0.18,1.13,-1.08,0.29,-0.20,11.40,100.0,-55
17268,39.639,0.27,1.10,-1.08,0.15,-0.15,11.52,100.0,-56
17269,39.667,0.20,1.10,-1.03,0.24,-0.29,11.52,100.0,-56
17270,39.696,0.19,1.11,-1.08,0.20,-0.15,11.52,100.0,-56
17271,39.725,0.19,1.06,-1.03,0.20,-0.15,11.26,100.0,-56
17272,39.753,0.12,1.09,-1.03,0.24,-0.24,11.26,100.0,-56
17273,39.782,0.17,1.08,-1.03,0.20,-0.24,11.26,100.0,-56
17274,40.141,0.25,1.07,-1.03,0.20,-0.20,11.52,100.0,-55
17275,40.170,0.23,1.05,-1.03,0.15,-0.15,11.52,100.0,-55
17276,40.198,0.23,1.06,-1.03,0.20,-0.15,11.52,100.0,-55
17277,40.227,0.23,1.09,-1.03,0.29,-0.20,11.26,100.0,-55
17278,40.256,0.15,1.11,-1.08,0.20,-0.15,11.26,100.0,-55
17279,40.284,0.18,1.12,-1.08,0.20,-0.24,11.26,100.0,-55
17280,40.644,0.21,1.11,-1.08,0.15,-0.24,11.52,100.0,-56
17281,40.672,0.21,1.12,-1.08,0.24,-0.20,11.52,100.0,-56
17282,40.701,0.25,1.01,-0.98,0.20,-0.15,11.52,100.0,-56
17283,40.729,0.25,1.11,-1.08,0.20,-0.20,11.26,100.0,-56
17284,40.758,0.23,1.12,-1.08,0.24,-0.20,11.26,100.0,-56
17285,40.786,0.12,1.06,-1.03,0.20,-0.15,11.26,100.0,-56
17286,41.144,0.27,1.11,-1.08,0.20,-0.20,11.52,100.0,-55
17287,41.173,0.19,1.02,-0.98,0.15,-0.24,11.52,100.0,-55
17288,41.201,0.13,1.11,-1.08,0.24,-0.10,11.52,100.0,-55
17289,41.230,0.13,1.12,-1.08,0.20,-0.24,11.40,100.0,-55
17290,41.258,0.19,1.07,-1.03,0.20,-0.20,11.40,100.0,-55
17291,41.287,0.19,1.08,-1.03,0.24,-0.20,11.40,100.0,-55
17292,41.750,0.29,1.01,-0.98,0.15,-0.20,11.52,100.0,-55
17293,41.778,0.27,1.08,-1.03,0.24,-0.20,11.52,100.0,-55
17294,41.807,0.29,1.08,-1.03,0.24,-0.20,11.52,100.0,-55
17295,41.836,0.29,1.07,-1.03,0.24,-0.15,11.26,100.0,-55
17296,41.864,0.24,1.11,-1.08,0.20,-0.15,11.26,100.0,-55
17297,41.893,0.35,1.12,-1.08,0.24,-0.20,11.26,100.0,-55
17298,42.251,0.35,1.11,-1.08,0.15,-0.20,11.52,100.0,-54
17299,42.279,0.25,1.05,-1.03,0.15,-0.15,11.52,100.0,-54
17300,42.308,0.26,1.06,-1.03,0.15,-0.20,11.52,100.0,-54
17301,42.336,0.26,1.16,-1.13,0.20,-0.20,11.26,100.0,-54
17302,42.365,0.26,1.11,-1.08,0.20,-0.15,11.26,100.0,-54
17303,42.393,0.26,1.11,-1.08,0.20,-0.15,11.26,100.0,-54
17304,42.755,0.33,1.11,-1.08,0.15,-0.20,11.52,100.0,-53
17305,42.783,0.29,1.06,-1.03,0.20,-0.15,11.52,100.0,-53
17306,42.812,0.25,1.05,-1.03,0.15,-0.15,11.52,100.0,-53
17307,42.840,0.25,1.07,-1.03,0.20,-0.20,11.26,100.0,-53
17308,42.869,0.21,1.06,-1.03,0.20,-0.15,11.26,100.0,-53
17309,42.898,0.20,1.11,-1.08,0.20,-0.15,11.26,100.0,-53
17310,43.255,0.22,1.11,-1.08,0.24,-0.15,11.52,100.0,-56
17311,43.284,0.17,1.12,-1.08,0.24,-0.20,11.52,100.0,-56
17312,43.312,0.27,1.13,-1.08,0.24,-0.24,11.52,100.0,-56
17313,43.341,0.27,1.10,-1.08,0.15,-0.15,11.40,100.0,-56
17314,43.370,0.24,1.08,-1.03,0.20,-0.24,11.40,100.0,-56
17315,43.398,0.22,1.06,-1.03,0.20,-0.15,11.40,100.0,-56
17316,43.856,0.23,1.07,-1.03,0.15,-0.24,11.52,100.0,-54
17317,43.885,0.19,1.09,-1.03,0.24,-0.24,11.52,100.0,-54
17318,43.913,0.24,1.09,-1.03,0.24,-0.24,11.52,100.0,-54
17319,43.942,0.24,1.12,-1.08,0.24,-0.20,11.26,100.0,-54
17320,43.970,0.18,1.11,-1.08,0.24,-0.15,11.26,100.0,-54
17321,43.999,0.26,1.08,-1.03,0.24,-0.20,11.26,100.0,-54
17322,44.360,0.29,1.11,-1.08,0.15,-0.24,11.52,100.0,-56
17323,44.388,0.33,1.07,-1.03,0.20,-0.20,11.52,100.0,-56
17324,44.417,0.31,1.07,-1.03,0.20,-0.20,11.52,100.0,-56
17325,44.446,0.31,1.06,-1.03,0.20,-0.15,11.26,100.0,-56
17326,44.474,0.23,1.08,-1.03,0.24,-0.20,11.26,100.0,-56
17327,44.503,0.24,1.07,-1.03,0.20,-0.20,11.26,100.0,-56
17328,44.862,0.26,1.11,-1.08,0.15,-0.20,11.52,100.0,-56
17329,44.891,0.25,1.11,-1.08,0.20,-0.20,11.52,100.0,-56
17330,44.919,0.32,1.11,-1.08,0.20,-0.15,11.52,100.0,-56
17331,44.948,0.32,1.07,-1.03,0.24,-0.15,11.26,100.0,-56
17332,44.977,0.25,1.00,-0.98,0.15,-0.15,11.26,100.0,-56
17333,45.005,0.23,1.07,-1.03,0.20,-0.20,11.26,100.0,-56
17334,45.365,0.30,1.11,-1.08,0.15,-0.20,11.52,100.0,-56
17335,45.393,0.25,1.11,-1.08,0.15,-0.24,11.52,100.0,-56
17336,45.422,0.27,1.12,-1.08,0.20,-0.24,11.52,100.0,-56
17337,45.451,0.27,1.13,-1.08,0.24,-0.24,11.40,100.0,-56
17338,45.479,0.28,1.11,-1.08,0.24,-0.15,11.40,100.0,-56
17339,45.508,0.27,1.14,-1.08,0.24,-0.29,11.40,100.0,-56
17340,45.867,0.27,1.11,-1.08,0.15,-0.20,11.65,100.0,-55
17341,45.896,0.22,1.08,-1.03,0.20,-0.24,11.65,100.0,-55
17342,45.925,0.23,1.11,-1.08,0.15,-0.20,11.65,100.0,-55
17343,45.953,0.23,1.08,-1.03,0.20,-0.24,11.40,100.0,-55
17344,45.982,0.21,1.11,-1.08,0.20,-0.20,11.40,100.0,-55
17345,46.010,0.30,1.08,-1.03,0.24,-0.20,11.40,100.0,-55
17346,46.470,0.42,1.09,-1.03,0.20,-0.29,11.52,100.0,-55
17347,46.498,0.36,1.06,-1.03,0.20,-0.15,11.52,100.0,-55
17348,46.527,0.30,1.11,-1.08,0.15,-0.24,11.52,100.0,-55
17349,46.555,0.30,1.12,-1.08,0.24,-0.20,11.26,100.0,-55
17350,46.584,0.23,1.16,-1.13,0.20,-0.20,11.26,100.0,-55
17351,46.613,0.22,1.07,-1.03,0.20,-0.20,11.26,100.0,-55
17352,46.972,0.24,1.07,-1.03,0.20,-0.20,11.52,100.0,-54
17353,47.001,0.20,1.11,-1.08,0.24,-0.15,11.52,100.0,-54
17354,47.029,0.19,1.11,-1.08,0.20,-0.20,11.52,100.0,-54
17355,47.058,0.19,1.08,-1.03,0.20,-0.24,11.26,100.0,-54
17356,47.086,0.19,1.11,-1.08,0.20,-0.15,11.26,100.0,-54
17357,47.115,0.12,1.07,-1.03,0.20,-0.20,11.26,100.0,-54
17358,47.474,0.22,1.11,-1.08,0.20,-0.15,11.52,100.0,-55
17359,47.503,0.28,1.13,-1.08,0.20,-0.29,11.52,100.0,-55
17360,47.532,0.18,1.11,-1.08,0.20,-0.20,11.52,100.0,-55
17361,47.560,0.18,1.06,-1.03,0.15,-0.20,11.26,100.0,-55
17362,47.589,0.16,1.07,-1.03,0.20,-0.20,11.26,100.0,-55
17363,47.617,0.15,1.06,-1.03,0.15,-0.20,11.26,100.0,-55
17364,47.977,0.14,1.11,-1.08,0.15,-0.20,11.52,100.0,-55
17365,48.005,0.14,1.02,-0.98,0.15,-0.24,11.52,100.0,-55
17366,48.034,0.15,1.11,-1.08,0.24,-0.15,11.52,100.0,-55
17367,48.063,0.15,1.07,-1.03,0.20,-0.20,11.40,100.0,-55
17368,48.091,0.18,1.11,-1.08,0.20,-0.20,11.40,100.0,-55
17369,48.120,0.23,1.07,-1.03,0.20,-0.20,11.40,100.0,-55
17370,48.579,0.30,1.06,-1.03,0.20,-0.15,11.52,100.0,-55
17371,48.608,0.33,1.05,-1.03,0.15,-0.15,11.52,100.0,-55
17372,48.636,0.31,1.08,-1.03,0.24,-0.20,11.52,100.0,-55
17373,48.665,0.31,1.05,-1.03,0.15,-0.15,11.26,100.0,-55
17374,48.693,0.27,1.06,-1.03,0.15,-0.20,11.26,100.0,-55
17375,48.722,0.23,1.05,-1.03,0.20,-0.10,11.26,100.0,-55
17376,49.082,0.24,1.10,-1.08,0.15,-0.15,11.52,100.0,-55
17377,49.110,0.18,1.11,-1.08,0.20,-0.15,11.52,100.0,-55
17378,49.139,0.20,1.11,-1.08,0.20,-0.20,11.52,100.0,-55
17379,49.167,0.20,1.07,-1.03,0.20,-0.20,11.26,100.0,-55
17380,49.196,0.13,1.02,-0.98,0.20,-0.20,11.26,100.0,-55
17381,49.224,0.19,1.08,-1.03,0.24,-0.20,11.26,100.0,-55
17382,49.584,0.28,1.07,-1.03,0.20,-0.20,11.52,100.0,-54
17383,49.612,0.23,1.06,-1.03,0.20,-0.15,11.52,100.0,-54
17384,49.641,0.24,1.11,-1.08,0.15,-0.24,11.52,100.0,-54
17385,49.670,0.24,1.07,-1.03,0.20,-0.20,11.26,100.0,-54
17386,49.698,0.26,1.06,-1.03,0.20,-0.15,11.26,100.0,-54
17387,49.727,0.22,1.06,-1.03,0.15,-0.20,11.26,100.0,-54
17388,50.086,0.26,1.11,-1.08,0.20,-0.15,11.52,100.0,-54
17389,50.115,0.23,1.09,-1.03,0.20,-0.29,11.52,100.0,-54
17390,50.143,0.28,1.11,-1.08,0.20,-0.15,11.52,100.0,-54
17391,50.172,0.28,1.09,-1.03,0.24,-0.24,11.40,100.0,-54
17392,50.200,0.24,1.10,-1.08,0.15,-0.15,11.40,100.0,-54
17393,50.229,0.26,1.11,-1.08,0.20,-0.20,11.40,100.0,-54
17394,50.688,0.28,6.25,-6.22,0.54,-0.15,11.52,100.0,-58
17395,50.717,0.21,7.43,-7.40,0.64,-0.15,11.52,100.0,-58
17396,50.746,0.14,8.16,-8.13,0.59,-0.24,11.52,100.0,-58
17397,50.774,0.14,8.03,-7.99,0.69,-0.39,11.26,100.0,-58
17398,50.803,0.21,6.57,-6.47,1.08,-0.44,11.26,100.0,-58
17399,50.831,0.30,4.83,-4.80,0.39,-0.39,11.26,100.0,-58
17400,51.191,0.56,2.93,-2.89,0.29,-0.34,11.52,100.0,-69
17401,51.219,2.12,2.94,-2.89,0.44,-0.34,11.52,100.0,-69
17402,51.248,3.44,2.88,-2.84,0.34,-0.29,11.52,100.0,-69
17403,51.277,3.44,2.92,-2.89,0.29,-0.29,11.27,100.0,-69
17404,51.305,4.56,2.93,-2.89,0.39,-0.29,11.27,100.0,-69
17405,51.334,5.55,2.87,-2.84,0.34,-0.24,11.27,100.0,-69
17406,51.693,6.47,2.69,-2.65,0.34,-0.34,11.52,100.0,-86
17407,51.722,9.48,2.55,-2.50,0.39,-0.29,11.52,100.0,-86
17408,51.750,11.98,2.48,-2.45,0.29,-0.24,11.52,100.0,-86
17409,51.779,11.98,2.49,-2.45,0.29,-0.29,11.26,100.0,-86
17410,51.807,13.98,2.54,-2.50,0.39,-0.24,11.26,100.0,-86
17411,51.836,15.71,2.51,-2.45,0.39,-0.34,11.26,100.0,-86
17412,52.196,17.27,2.35,-2.30,0.34,-0.29,11.52,100.0,-81
17413,52.224,21.59,2.40,-2.35,0.39,-0.24,11.52,100.0,-81
17414,52.253,25.10,2.45,-2.40,0.34,-0.34,11.52,100.0,-81
17415,52.281,25.10,2.43,-2.40,0.29,-0.24,11.39,100.0,-81
17416,52.310,27.92,2.44,-2.40,0.29,-0.29,11.39,100.0,-81
17417,52.338,30.32,2.31,-2.25,0.34,-0.39,11.39,100.0,-81
17418,52.698,32.36,0.33,0.05,0.15,-0.29,11.65,100.0,-84
17419,52.727,37.09,0.39,0.15,0.10,-0.34,11.65,100.0,-84
17420,52.755,41.02,0.40,0.15,0.15,-0.34,11.65,100.0,-84
17421,52.784,41.02,0.39,0.15,0.10,-0.34,11.40,100.0,-84
17422,52.813,44.07,0.37,0.10,0.10,-0.34,11.40,100.0,-84
17423,52.841,46.58,0.32,0.10,0.10,-0.29,11.40,100.0,-84
17424,53.301,48.67,0.41,0.10,0.05,-0.39,11.52,100.0,-86
17425,53.329,52.87,0.36,0.05,0.10,-0.34,11.52,100.0,-86
17426,53.358,56.20,0.36,0.05,0.10,-0.34,11.52,100.0,-86
17427,53.386,56.20,0.32,0.10,0.10,-0.29,11.26,100.0,-86
17428,53.415,58.71,0.39,0.10,0.15,-0.34,11.26,100.0,-86
17429,53.443,60.91,0.33,0.05,0.15,-0.29,11.26,100.0,-86
17430,53.803,62.74,0.33,0.00,0.15,-0.29,11.52,100.0,-86
17431,53.832,66.06,0.33,0.05,0.15,-0.29,11.52,100.0,-86
17432,53.860,66.06,0.38,0.05,0.15,-0.34,11.52,100.0,-86
17433,53.889,68.67,0.42,0.00,0.15,-0.39,11.26,100.0,-86
17434,53.917,70.74,0.29,0.00,0.15,-0.24,11.26,100.0,-86
17435,53.946,70.74,0.31,0.00,0.20,-0.24,11.26,100.0,-86
17436,54.305,72.49,0.20,0.00,0.05,-0.20,11.52,100.0,-81
17437,54.334,75.25,0.38,0.05,0.15,-0.34,11.52,100.0,-81
17438,54.362,75.25,0.37,0.00,0.15,-0.34,11.52,100.0,-81
17439,54.391,77.38,0.29,0.00,0.15,-0.24,11.26,100.0,-81
17440,54.420,79.03,0.37,0.00,0.15,-0.34,11.26,100.0,-81
17441,54.448,79.03,0.31,0.00,0.10,-0.29,11.26,100.0,-81
17442,54.808,80.49,0.33,0.00,0.15,-0.29,11.52,100.0,-76
17443,54.836,82.45,0.35,0.00,0.20,-0.29,11.52,100.0,-76
17444,54.865,82.45,0.33,0.00,0.15,-0.29,11.52,100.0,-76
17445,54.894,83.92,0.36,-0.05,0.20,-0.29,11.40,100.0,-76
17446,54.922,85.17,0.36,-0.05,0.20,-0.29,11.40,100.0,-76
17447,54.951,86.19,0.42,0.00,0.24,-0.34,11.40,100.0,-76
17448,55.310,86.88,0.33,0.00,0.15,-0.29,11.65,100.0,-77
17449,55.339,87.87,0.33,0.00,0.15,-0.29,11.65,100.0,-77
17450,55.367,87.87,0.22,-0.05,0.10,-0.20,11.65,100.0,-77
17451,55.396,88.64,0.33,0.00,0.15,-0.29,11.40,100.0,-77
17452,55.424,89.25,0.29,0.00,0.15,-0.24,11.40,100.0,-77
17453,55.453,89.25,0.29,0.00,0.15,-0.24,11.40,100.0,-77
17454,55.912,89.76,0.29,0.00,0.15,-0.24,11.52,100.0,-81
17455,55.941,89.90,0.33,0.00,0.15,-0.29,11.52,100.0,-81
17456,55.970,89.90,0.35,0.00,0.20,-0.29,11.52,100.0,-81
17457,55.998,90.01,0.29,0.00,0.15,-0.24,11.26,100.0,-81
17458,56.027,90.08,0.33,0.05,0.15,-0.29,11.26,100.0,-81
17459,56.055,90.08,0.33,0.00,0.15,-0.29,11.26,100.0,-81
17460,56.415,90.13,0.33,0.00,0.15,-0.29,11.52,100.0,-79
17461,56.443,89.44,0.31,0.00,0.20,-0.24,11.52,100.0,-79
17462,56.472,89.44,0.26,0.00,0.10,-0.24,11.52,100.0,-79
17463,56.500,88.88,0.31,0.00,0.10,-0.29,11.26,100.0,-79
17464,56.529,88.43,0.31,0.00,0.10,-0.29,11.26,100.0,-79
17465,56.558,88.43,0.35,0.00,0.20,-0.29,11.26,100.0,-79
17466,56.917,88.01,0.69,-0.20,0.59,-0.29,11.52,100.0,-84
17467,56.946,86.43,0.31,0.00,0.20,-0.24,11.52,100.0,-84
17468,56.974,85.27,0.53,0.05,0.20,-0.49,11.52,100.0,-84
17469,57.003,85.27,0.33,0.05,0.15,-0.29,11.40,100.0,-84
17470,57.031,84.37,0.38,0.05,0.15,-0.34,11.40,100.0,-84
17471,57.060,83.91,2.74,0.88,1.37,2.20,11.40,100.0,-84
17472,57.419,83.89,2.42,1.86,1.27,-0.88,11.65,100.0,-76
17473,57.448,81.81,1.92,1.72,0.44,-0.74,11.65,100.0,-76
17474,57.477,80.21,0.73,0.64,0.05,-0.34,11.65,100.0,-76
17475,57.505,80.21,1.08,1.08,-0.10,0.00,11.40,100.0,-76
17476,57.534,78.98,0.53,0.05,0.20,-0.49,11.40,100.0,-76
17477,57.562,78.10,9.39,0.24,-3.33,8.77,11.40,100.0,-76
17478,57.922,77.46,5.66,-4.66,0.49,-3.18,11.65,100.0,-91
17479,57.950,76.49,4.34,-3.72,2.16,-0.54,11.65,100.0,-91
17480,57.979,75.71,2.98,-1.22,-1.72,2.11,11.65,100.0,-91
17481,58.007,75.71,2.51,-1.52,-1.96,0.39,11.40,100.0,-91
17482,58.036,75.01,4.04,0.24,-3.53,-1.96,11.40,100.0,-91
17483,58.065,74.58,3.41,0.29,-2.35,-2.45,11.40,100.0,-91
17484,58.524,74.31,1.52,0.24,-0.78,-1.27,11.52,100.0,-76
17485,58.553,73.51,1.80,0.34,-0.15,-1.76,11.52,100.0,-76
17486,58.581,72.95,1.34,0.10,0.39,-1.27,11.52,100.0,-76
17487,58.610,72.95,1.43,0.05,1.08,-0.93,11.26,100.0,-76
17488,58.638,72.47,1.26,0.15,1.22,-0.24,11.26,100.0,-76
17489,58.667,72.14,1.54,0.29,1.37,0.64,11.26,100.0,-76
17490,59.026,71.91,0.90,0.15,-0.29,0.83,11.52,100.0,-77
17491,59.055,71.29,0.80,0.24,-0.54,0.54,11.52,100.0,-77
17492,59.084,70.82,0.75,0.29,-0.69,0.00,11.52,100.0,-77
17493,59.112,70.82,0.96,0.54,-0.59,-0.54,11.40,100.0,-77
17494,59.141,70.44,1.32,0.69,0.00,-1.13,11.40,100.0,-77
17495,59.169,70.22,1.99,1.08,0.88,-1.42,11.40,100.0,-77
17496,59.529,70.21,1.62,0.93,0.05,-1.32,11.65,100.0,-77
17497,59.557,69.63,1.43,0.93,0.05,-1.08,11.65,100.0,-77
17498,59.586,69.12,1.19,0.93,0.00,-0.74,11.65,100.0,-77
17499,59.614,69.12,1.01,0.93,0.05,-0.39,11.40,100.0,-77
17500,59.643,68.69,0.94,0.93,0.15,-0.05,11.40,100.0,-77
17501,59.671,68.32,1.05,1.03,0.15,0.15,11.40,100.0,-77
17502,60.031,68.08,1.00,0.98,0.15,-0.15,11.65,100.0,-76
17503,60.060,67.43,1.08,1.03,0.20,-0.24,11.65,100.0,-76
17504,60.088,66.98,1.25,1.13,0.24,-0.49,11.65,100.0,-76
17505,60.117,66.98,1.32,1.18,0.24,-0.54,11.40,100.0,-76
17506,60.145,66.52,1.38,1.18,0.34,-0.64,11.40,100.0,-76
17507,60.174,66.14,1.37,1.13,0.44,-0.64,11.40,100.0,-76
17508,60.633,65.92,0.78,0.74,0.05,-0.24,11.52,100.0,-89
17509,60.662,65.30,0.90,0.83,0.15,-0.29,11.52,100.0,-89
17510,60.690,64.91,0.90,0.88,0.10,-0.15,11.52,100.0,-89
17511,60.719,64.91,1.00,0.98,0.05,-0.20,11.26,100.0,-89
17512,60.748,64.50,0.93,0.88,0.05,-0.29,11.26,100.0,-89
17513,60.776,64.25,0.97,0.88,0.00,-0.39,11.26,100.0,-89
17514,61.136,64.02,0.99,0.88,-0.05,-0.44,11.52,100.0,-80
17515,61.164,63.23,1.01,0.93,-0.05,-0.39,11.52,100.0,-80
17516,61.193,62.79,1.06,0.98,-0.05,-0.39,11.52,100.0,-80
17517,61.222,62.79,1.04,0.98,0.00,-0.34,11.26,100.0,-80
17518,61.250,62.34,1.07,1.03,0.00,-0.29,11.26,100.0,-80
17519,61.279,62.05,1.05,1.03,0.05,-0.20,11.26,100.0,-80
17520,61.638,61.82,0.70,0.64,0.00,-0.29,11.52,100.0,-100
17521,61.667,61.24,0.65,0.64,0.00,-0.15,11.52,100.0,-100
17522,61.695,61.24,0.73,0.69,0.00,-0.24,11.52,100.0,-100
17523,61.724,60.82,0.75,0.69,0.00,-0.29,11.40,100.0,-100
17524,61.752,60.41,0.79,0.74,0.00,-0.29,11.40,100.0,-100
17525,61.781,60.41,0.81,0.74,-0.05,-0.34,11.40,100.0,-100
17526,62.140,60.13,1.10,1.03,0.00,-0.39,11.65,100.0,-101
17527,62.169,59.40,1.13,1.08,-0.05,-0.34,11.65,100.0,-101
17528,62.198,58.89,1.06,1.03,-0.05,-0.24,11.65,100.0,-101
17529,62.226,58.89,1.01,0.98,0.00,-0.24,11.40,100.0,-101
17530,62.255,58.44,0.95,0.88,0.00,-0.34,11.40,100.0,-101
17531,62.283,58.05,0.96,0.93,0.00,-0.24,11.40,100.0,-101
17532,62.643,57.80,0.95,0.88,0.05,-0.34,11.65,100.0,-91
17533,62.671,57.20,0.99,0.88,0.10,-0.44,11.65,100.0,-91
17534,62.700,56.78,0.90,0.83,0.00,-0.34,11.65,100.0,-91
17535,62.729,56.78,0.93,0.88,0.05,-0.29,11.40,100.0,-91
17536,62.757,56.42,0.87,0.83,0.10,-0.24,11.40,100.0,-91
17537,62.786,56.14,0.90,0.88,0.05,-0.20,11.40,100.0,-91
17538,63.245,55.88,0.90,0.88,0.00,-0.20,11.52,100.0,-90
17539,63.274,55.24,0.95,0.93,0.05,-0.20,11.52,100.0,-90
17540,63.302,55.24,0.95,0.93,0.00,-0.20,11.52,100.0,-90
17541,63.331,54.77,0.93,0.88,0.10,-0.29,11.26,100.0,-90
17542,63.359,54.40,0.92,0.88,0.10,-0.24,11.26,100.0,-90
17543,63.388,54.15,0.91,0.83,0.10,-0.34,11.26,100.0,-90
17544,63.748,53.94,0.94,0.83,0.00,-0.44,11.52,100.0,-88
17545,63.777,53.28,0.94,0.83,0.00,-0.44,11.52,100.0,-88
17546,63.805,53.28,0.94,0.83,0.05,-0.44,11.52,100.0,-88
17547,63.834,52.79,0.90,0.83,0.05,-0.34,11.26,100.0,-88
17548,63.862,52.42,0.99,0.93,0.05,-0.34,11.26,100.0,-88
17549,63.891,52.17,0.98,0.93,0.05,-0.29,11.26,100.0,-88
17550,64.250,51.86,0.94,0.93,0.00,-0.10,11.52,100.0,-84
17551,64.279,51.23,0.99,0.98,-0.05,-0.10,11.52,100.0,-84
17552,64.307,51.23,0.95,0.93,-0.05,-0.20,11.52,100.0,-84
17553,64.336,50.73,0.95,0.93,-0.05,-0.20,11.40,100.0,-84
17554,64.364,50.39,0.95,0.93,-0.05,-0.20,11.40,100.0,-84
17555,64.393,50.13,1.06,0.98,0.00,-0.39,11.40,100.0,-84
17556,64.752,49.78,0.97,0.93,-0.10,-0.24,11.65,100.0,-77
17557,64.780,49.11,1.06,0.98,-0.10,-0.39,11.65,100.0,-77
17558,64.809,48.57,0.95,0.88,0.00,-0.34,11.65,100.0,-77
17559,64.838,48.57,0.99,0.88,-0.05,-0.44,11.40,100.0,-77
17560,64.866,48.16,0.97,0.88,0.05,-0.39,11.40,100.0,-77
17561,64.895,47.94,0.95,0.88,0.05,-0.34,11.40,100.0,-77
17562,65.255,47.71,1.12,0.98,0.10,-0.54,11.65,100.0,-83
17563,65.283,47.13,1.09,0.98,0.20,-0.44,11.65,100.0,-83
17564,65.312,46.65,1.04,0.93,0.15,-0.44,11.65,100.0,-83
17565,65.340,46.65,0.97,0.88,0.10,-0.39,11.40,100.0,-83
17566,65.369,46.33,1.04,0.98,0.05,-0.34,11.40,100.0,-83
17567,65.398,46.01,0.98,0.93,0.10,-0.29,11.40,100.0,-83
17568,65.857,45.78,0.83,0.78,0.10,-0.24,11.52,100.0,-101
17569,65.885,45.17,0.99,0.93,0.15,-0.29,11.52,100.0,-101
17570,65.914,44.73,1.06,0.98,0.10,-0.39,11.52,100.0,-101
17571,65.943,44.73,1.12,1.03,0.10,-0.44,11.26,100.0,-101
17572,65.971,44.24,1.12,1.03,0.05,-0.44,11.26,100.0,-101
17573,66.000,43.88,1.10,0.98,0.05,-0.49,11.26,100.0,-101
17574,66.359,43.69,0.99,0.98,0.00,-0.15,11.52,100.0,-85
17575,66.388,43.10,0.98,0.98,0.05,-0.05,11.52,100.0,-85
17576,66.416,43.10,0.99,0.98,0.10,-0.10,11.52,100.0,-85
17577,66.445,42.59,0.95,0.93,0.10,-0.15,11.26,100.0,-85
17578,66.473,42.18,0.93,0.88,0.15,-0.24,11.26,100.0,-85
17579,66.502,41.92,0.98,0.93,0.10,-0.29,11.26,100.0,-85
17580,66.862,41.63,0.75,0.64,0.05,-0.39,11.52,100.0,-91
17581,66.890,41.13,0.82,0.74,0.10,-0.34,11.52,100.0,-91
17582,66.919,40.70,0.92,0.69,0.20,-0.59,11.52,100.0,-91
17583,66.947,40.70,0.94,0.78,0.15,-0.49,11.40,100.0,-91
17584,66.976,40.33,1.01,0.88,0.20,-0.44,11.40,100.0,-91
17585,67.004,40.09,1.03,0.93,0.20,-0.39,11.40,100.0,-91
17586,67.364,39.95,0.88,0.83,0.05,-0.29,11.65,100.0,-87
17587,67.393,39.42,0.90,0.88,0.05,-0.20,11.65,100.0,-87
17588,67.421,38.98,0.88,0.88,0.00,-0.05,11.65,100.0,-87
17589,67.450,38.98,0.93,0.93,0.00,-0.05,11.40,100.0,-87
17590,67.478,38.57,0.88,0.88,0.05,0.05,11.40,100.0,-87
17591,67.507,38.33,0.93,0.93,0.00,0.00,11.40,100.0,-87
17592,67.866,38.08,1.03,0.88,0.00,-0.54,11.65,100.0,-88
17593,67.895,37.60,1.01,0.88,-0.05,-0.49,11.65,100.0,-88
17594,67.923,37.60,0.97,0.83,0.00,-0.49,11.65,100.0,-88
17595,67.952,37.18,0.91,0.74,-0.05,-0.54,11.40,100.0,-88
17596,67.980,36.96,0.91,0.74,0.00,-0.54,11.40,100.0,-88
17597,68.009,36.78,1.02,0.78,0.10,-0.64,11.40,100.0,-88
17598,68.469,36.63,0.95,0.83,0.10,-0.44,11.52,100.0,-101
17599,68.497,36.05,0.90,0.78,0.10,-0.44,11.52,100.0,-101
17600,68.526,35.63,1.00,0.83,0.15,-0.54,11.52,100.0,-101
17601,68.554,35.63,0.94,0.78,0.15,-0.49,11.26,100.0,-101
17602,68.583,35.26,0.90,0.78,0.20,-0.39,11.26,100.0,-101
17603,68.611,34.93,0.91,0.83,0.15,-0.34,11.26,100.0,-101
17604,68.971,34.73,0.94,0.83,0.05,-0.44,11.52,100.0,-85
17605,68.999,34.16,0.90,0.78,0.05,-0.44,11.52,100.0,-85
17606,69.028,33.78,0.90,0.83,0.00,-0.34,11.52,100.0,-85
17607,69.057,33.78,0.86,0.83,0.00,-0.20,11.40,100.0,-85
17608,69.085,33.46,0.86,0.83,0.05,-0.20,11.40,100.0,-85
17609,69.114,33.16,0.91,0.88,0.10,-0.20,11.40,100.0,-85
17610,69.472,32.92,0.88,0.83,0.00,-0.29,11.65,100.0,-80
17611,69.501,32.37,0.94,0.93,0.00,-0.15,11.65,100.0,-80
17612,69.529,32.37,0.88,0.83,0.00,-0.29,11.65,100.0,-80
17613,69.558,31.92,0.88,0.83,0.05,-0.29,11.40,100.0,-80
17614,69.587,31.56,0.92,0.83,0.05,-0.39,11.40,100.0,-80
17615,69.615,31.34,0.88,0.78,0.10,-0.39,11.40,100.0,-80
17616,69.975,31.12,0.95,0.93,0.00,-0.20,11.65,100.0,-74
17617,70.003,30.59,0.92,0.88,0.00,-0.24,11.65,100.0,-74
17618,70.032,30.59,0.95,0.88,-0.10,-0.34,11.65,100.0,-74
17619,70.060,30.11,0.93,0.88,-0.05,-0.29,11.40,100.0,-74
17620,70.089,29.86,0.97,0.93,-0.10,-0.24,11.40,100.0,-74
17621,70.117,29.59,1.05,1.03,-0.05,-0.20,11.40,100.0,-74
17622,70.477,29.29,1.13,0.93,0.00,-0.64,11.65,100.0,-76
17623,70.506,28.80,1.10,0.93,0.00,-0.59,11.65,100.0,-76
17624,70.534,28.80,1.05,0.93,0.00,-0.49,11.65,100.0,-76
17625,70.563,28.38,1.01,0.93,0.05,-0.39,11.40,100.0,-76
17626,70.591,28.16,0.88,0.78,0.05,-0.39,11.40,100.0,-76
17627,70.620,27.91,0.94,0.83,0.05,-0.44,11.40,100.0,-76
17628,71.079,27.75,1.11,1.08,0.15,-0.20,11.52,100.0,-77
17629,71.108,27.20,1.11,1.08,0.10,-0.24,11.52,100.0,-77
17630,71.136,26.85,1.04,1.03,0.10,-0.15,11.52,100.0,-77
17631,71.165,26.85,1.00,0.98,0.05,-0.20,11.26,100.0,-77
17632,71.194,26.51,0.98,0.98,0.00,-0.10,11.26,100.0,-77
17633,71.222,26.38,0.99,0.98,-0.05,-0.10,11.26,100.0,-77
17634,71.582,26.11,0.80,0.74,0.20,-0.24,11.52,100.0,-77
17635,71.610,25.62,0.86,0.78,0.20,-0.29,11.52,100.0,-77
17636,71.639,25.28,1.00,0.93,0.20,-0.29,11.52,100.0,-77
17637,71.667,25.28,0.97,0.88,0.20,-0.34,11.40,100.0,-77
17638,71.696,24.94,1.03,0.93,0.10,-0.44,11.40,100.0,-77
17639,71.725,24.65,1.03,0.93,0.00,-0.44,11.40,100.0,-77
17640,72.084,24.51,0.89,0.88,0.00,-0.15,11.65,100.0,-85
17641,72.113,23.98,0.83,0.83,0.00,-0.05,11.65,100.0,-85
17642,72.141,23.98,0.88,0.88,0.05,-0.05,11.65,100.0,-85
17643,72.170,23.64,0.93,0.93,0.05,0.00,11.40,100.0,-85
17644,72.198,23.28,1.00,0.98,0.15,-0.10,11.40,100.0,-85
17645,72.227,23.28,0.95,0.93,0.15,-0.10,11.40,100.0,-85
17646,72.586,23.06,0.94,0.78,-0.15,-0.49,11.65,100.0,-87
17647,72.615,22.49,0.99,0.78,-0.10,-0.59,11.65,100.0,-87
17648,72.644,22.19,0.99,0.83,-0.05,-0.54,11.65,100.0,-87
17649,72.672,22.19,1.00,0.83,-0.10,-0.54,11.40,100.0,-87
17650,72.701,21.84,0.93,0.78,-0.05,-0.49,11.40,100.0,-87
17651,72.729,21.55,0.86,0.78,-0.05,-0.34,11.40,100.0,-87
17652,73.089,21.39,0.91,0.88,0.15,-0.15,11.65,100.0,-80
17653,73.117,20.79,0.92,0.88,0.20,-0.15,11.65,100.0,-80
17654,73.146,20.39,0.82,0.78,0.20,-0.15,11.65,100.0,-80
17655,73.174,20.39,0.93,0.88,0.15,-0.24,11.40,100.0,-80
17656,73.203,20.03,0.93,0.88,0.10,-0.29,11.40,100.0,-80
17657,73.232,19.72,0.92,0.83,0.05,-0.39,11.40,100.0,-80
17658,73.691,19.56,1.01,0.88,0.05,-0.49,11.52,100.0,-85
17659,73.720,18.94,1.05,0.93,0.05,-0.49,11.52,100.0,-85
17660,73.748,18.53,1.10,1.03,0.05,-0.39,11.52,100.0,-85
17661,73.777,18.53,1.13,1.08,0.05,-0.34,11.26,100.0,-85
17662,73.805,18.23,1.17,1.13,0.05,-0.29,11.26,100.0,-85
17663,73.834,17.88,1.14,1.13,0.05,-0.20,11.26,100.0,-85
17664,74.193,17.69,1.02,0.98,0.00,-0.29,11.52,100.0,-84
17665,74.222,17.09,1.07,1.03,0.05,-0.29,11.52,100.0,-84
17666,74.251,16.64,1.02,0.98,-0.05,-0.29,11.52,100.0,-84
17667,74.279,16.64,1.01,0.93,0.00,-0.39,11.40,100.0,-84
17668,74.308,16.29,1.10,1.03,0.00,-0.39,11.40,100.0,-84
17669,74.336,16.03,1.10,0.98,0.00,-0.49,11.40,100.0,-84
17670,74.696,15.86,0.92,0.88,0.10,-0.24,11.65,100.0,-80
17671,74.725,15.35,0.93,0.88,0.10,-0.29,11.65,100.0,-80
17672,74.753,14.99,0.97,0.93,0.10,-0.24,11.65,100.0,-80
17673,74.782,14.99,0.98,0.93,0.05,-0.29,11.40,100.0,-80
17674,74.810,14.77,1.04,0.98,0.05,-0.34,11.40,100.0,-80
17675,74.839,14.42,1.02,0.98,0.05,-0.29,11.40,100.0,-80
17676,75.198,14.16,0.95,0.88,0.00,-0.34,11.65,100.0,-81
17677,75.227,13.65,0.98,0.93,0.05,-0.29,11.65,100.0,-81
17678,75.255,13.65,1.04,0.98,0.05,-0.34,11.65,100.0,-81
17679,75.284,13.27,1.04,0.98,0.05,-0.34,11.40,100.0,-81
17680,75.312,12.87,1.04,0.98,0.10,-0.34,11.40,100.0,-81
17681,75.341,12.66,1.06,0.98,0.10,-0.39,11.40,100.0,-81
17682,75.701,12.45,0.99,0.93,0.00,-0.34,11.65,100.0,-82
17683,75.729,11.88,0.99,0.93,0.05,-0.34,11.65,100.0,-82
17684,75.758,11.51,0.98,0.93,0.10,-0.29,11.65,100.0,-82
17685,75.787,11.51,1.00,0.93,0.15,-0.34,11.40,100.0,-82
17686,75.815,11.14,1.01,0.93,0.20,-0.34,11.40,100.0,-82
17687,75.844,10.94,0.94,0.88,0.20,-0.24,11.40,100.0,-82
17688,76.303,10.74,0.86,0.83,0.05,-0.20,11.52,100.0,-84
17689,76.332,10.14,0.86,0.83,0.00,-0.20,11.52,100.0,-84
17690,76.360,9.80,0.79,0.74,0.05,-0.29,11.52,100.0,-84
17691,76.389,9.80,0.86,0.83,0.00,-0.20,11.26,100.0,-84
17692,76.418,9.47,0.92,0.88,0.05,-0.24,11.26,100.0,-84
17693,76.446,9.19,0.84,0.78,0.00,-0.29,11.26,100.0,-84
17694,76.806,9.09,0.97,0.88,0.00,-0.39,11.52,100.0,-98
17695,76.834,8.54,0.90,0.83,0.00,-0.34,11.52,100.0,-98
17696,76.863,8.54,0.98,0.93,0.00,-0.29,11.52,100.0,-98
17697,76.891,8.07,0.95,0.88,0.05,-0.34,11.40,100.0,-98
17698,76.920,7.74,0.95,0.88,0.05,-0.34,11.40,100.0,-98
17699,76.949,7.54,0.93,0.88,0.00,-0.29,11.40,100.0,-98
17700,77.308,7.28,0.97,0.88,0.10,-0.39,11.65,100.0,-89
17701,77.337,6.99,0.92,0.83,0.20,-0.34,11.65,100.0,-89
17702,77.365,6.67,0.91,0.83,0.15,-0.34,11.65,100.0,-89
17703,77.394,6.67,1.00,0.93,0.10,-0.34,11.40,100.0,-89
17704,77.422,6.42,0.99,0.88,0.10,-0.44,11.40,100.0,-89
17705,77.451,6.16,0.93,0.88,0.10,-0.29,11.40,100.0,-89
17706,77.810,5.98,0.89,0.88,0.00,-0.15,11.65,100.0,-99
17707,77.839,5.45,0.94,0.93,0.00,-0.10,11.65,100.0,-99
17708,77.867,5.45,0.99,0.98,0.05,-0.10,11.65,100.0,-99
17709,77.896,5.04,0.99,0.98,0.00,-0.15,11.40,100.0,-99
17710,77.925,4.70,0.99,0.98,0.05,-0.15,11.40,100.0,-99
17711,77.953,4.70,0.96,0.93,0.05,-0.24,11.40,100.0,-99
17712,78.413,4.47,0.83,0.74,0.05,-0.39,11.52,100.0,-95
17713,78.441,3.91,0.87,0.78,0.15,-0.34,11.52,100.0,-95
17714,78.470,3.49,0.93,0.78,0.24,-0.44,11.52,100.0,-95
17715,78.499,3.49,0.91,0.78,0.24,-0.39,11.26,100.0,-95
17716,78.527,3.10,0.95,0.83,0.24,-0.39,11.26,100.0,-95
17717,78.556,2.87,0.87,0.78,0.24,-0.29,11.26,100.0,-95
17724,79.415,0.68,1.41,-0.44,0.20,-1.32,10.90,94.5,-112
17725,79.443,0.47,3.55,-3.33,0.74,-0.98,10.90,94.5,-112
17726,79.472,0.34,0.76,-0.15,0.15,-0.74,10.90,94.5,-112
17727,79.501,0.34,0.73,0.24,0.00,-0.69,10.64,94.5,-112
17728,79.529,0.11,1.48,0.15,0.00,-1.47,10.64,94.5,-112
17729,79.558,-0.08,1.53,-0.20,0.05,-1.52,10.64,94.5,-112
17730,79.917,-0.15,1.38,-0.05,0.10,-1.37,10.90,94.8,-112
17731,79.946,-0.26,1.32,-0.05,0.05,-1.32,10.90,94.8,-112
17732,79.974,-0.34,1.32,0.00,0.05,-1.32,10.90,94.8,-112
17733,80.003,-0.34,1.28,-0.05,0.05,-1.27,10.76,94.8,-112
17734,80.032,-0.39,1.32,-0.05,0.05,-1.32,10.76,94.8,-112
17735,80.060,-0.41,1.32,-0.05,0.05,-1.32,10.76,94.8,-112
17736,80.420,-0.43,1.32,0.00,0.05,-1.32,11.02,95.1,-109
17737,80.448,-0.48,1.33,0.00,0.10,-1.32,11.02,95.1,-109
17738,80.477,-0.39,1.33,0.00,0.10,-1.32,11.02,95.1,-109
17739,80.505,-0.39,1.28,-0.05,0.05,-1.27,10.76,95.1,-109
17740,80.534,-0.47,1.32,-0.05,0.05,-1.32,10.76,95.1,-109
17741,80.562,-0.45,1.33,-0.10,0.10,-1.32,10.76,95.1,-109
17742,81.022,-0.31,1.32,-0.05,0.05,-1.32,10.90,95.4,-108
17743,81.050,-0.37,1.33,-0.05,0.10,-1.32,10.90,95.4,-108
17744,81.079,-0.44,1.28,-0.05,0.05,-1.27,10.90,95.4,-108
17745,81.108,-0.44,1.32,-0.05,0.05,-1.32,10.64,95.4,-108
17746,81.136,-0.50,1.37,-0.05,0.05,-1.37,10.64,95.4,-108
17747,81.165,-0.50,1.37,-0.05,0.05,-1.37,10.64,95.4,-108
17748,81.524,-0.46,1.37,0.00,0.05,-1.37,10.90,95.7,-108
17749,81.553,-0.46,1.38,-0.05,0.10,-1.37,10.90,95.7,-108
17750,81.581,-0.50,1.28,-0.05,0.05,-1.27,10.90,95.7,-108
17751,81.610,-0.50,1.32,-0.05,0.05,-1.32,10.64,95.7,-108
17752,81.638,-0.56,1.33,-0.05,0.10,-1.32,10.64,95.7,-108
17753,81.667,-0.52,1.42,0.00,0.05,-1.42,10.64,95.7,-108
17754,82.026,-0.47,1.32,0.00,0.05,-1.32,10.90,95.9,-106
17755,82.055,-0.51,1.38,-0.05,0.10,-1.37,10.90,95.9,-106
17756,82.084,-0.44,1.28,0.00,0.10,-1.27,10.90,95.9,-106
17757,82.112,-0.44,1.32,0.00,0.05,-1.32,10.64,95.9,-106
17758,82.141,-0.45,1.33,-0.05,0.10,-1.32,10.64,95.9,-106
17759,82.169,-0.45,1.32,-0.05,0.05,-1.32,10.64,95.9,-106
17760,82.529,-0.37,1.37,-0.05,0.05,-1.37,10.90,96.2,-108
17761,82.557,-0.44,1.37,-0.05,0.05,-1.37,10.90,96.2,-108
17762,82.586,-0.45,1.33,-0.05,0.10,-1.32,10.90,96.2,-108
17763,82.614,-0.45,1.33,-0.05,0.10,-1.32,10.76,96.2,-108
17764,82.643,-0.56,1.32,-0.05,0.05,-1.32,10.76,96.2,-108
17765,82.672,-0.54,1.37,0.00,0.05,-1.37,10.76,96.2,-108
17766,83.131,-0.42,1.37,-0.05,0.05,-1.37,10.90,96.4,-111
17767,83.160,-0.50,1.38,-0.05,0.10,-1.37,10.90,96.4,-111
17768,83.188,-0.44,1.38,0.00,0.10,-1.37,10.90,96.4,-111
17769,83.217,-0.44,1.37,0.00,0.05,-1.37,10.64,96.4,-111
17770,83.245,-0.47,1.38,-0.05,0.10,-1.37,10.64,96.4,-111
17771,83.274,-0.50,1.32,-0.05,0.05,-1.32,10.64,96.4,-111
17772,83.633,-0.49,1.33,0.00,0.10,-1.32,10.90,96.6,-109
17773,83.662,-0.44,1.37,-0.05,0.05,-1.37,10.90,96.6,-109
17774,83.691,-0.38,1.32,-0.05,0.05,-1.32,10.90,96.6,-109
17775,83.719,-0.38,1.33,0.00,0.10,-1.32,10.64,96.6,-109
17776,83.748,-0.46,1.37,0.00,0.00,-1.37,10.64,96.6,-109
17777,83.776,-0.51,1.32,0.00,0.05,-1.32,10.64,96.6,-109
17778,84.136,-0.49,1.32,0.00,0.00,-1.32,10.90,96.8,-109
17779,84.164,-0.55,1.37,0.00,0.05,-1.37,10.90,96.8,-109
17780,84.193,-0.55,1.32,0.00,0.05,-1.32,10.90,96.8,-109
17781,84.222,-0.58,1.38,0.00,0.10,-1.37,10.64,96.8,-109
17782,84.250,-0.53,1.32,0.00,0.05,-1.32,10.64,96.8,-109
17783,84.279,-0.51,1.32,0.00,0.05,-1.32,10.64,96.8,-109
17790,85.138,-0.51,1.32,0.00,-0.05,-1.32,10.35,91.7,-116
17791,85.167,-0.61,1.29,-0.20,0.10,-1.27,10.35,91.7,-116
17792,85.195,-0.67,1.53,-0.20,0.00,-1.52,10.35,91.7,-116
17793,85.224,-0.67,1.35,-0.24,0.10,-1.32,10.08,91.7,-116
17794,85.252,-0.62,1.57,-0.05,0.54,-1.47,10.08,91.7,-116
17795,85.281,-0.57,1.40,0.10,0.24,-1.37,10.08,91.7,-116
17796,85.740,-0.48,1.47,-0.05,0.64,-1.32,10.25,92.1,-93
17797,85.769,-0.49,1.67,-0.24,-0.64,-1.52,10.25,92.1,-93
17798,85.798,-0.46,2.13,-0.54,-0.98,-1.81,10.25,92.1,-93
17799,85.826,-0.46,1.61,-0.59,-0.93,-1.18,10.08,92.1,-93
17800,85.855,-0.48,1.91,-0.05,-1.27,-1.42,10.08,92.1,-93
17801,85.883,-0.47,1.80,0.00,-1.32,-1.22,10.08,92.1,-93
17802,86.243,-0.43,0.30,0.05,-0.29,-0.05,10.35,92.6,-107
17803,86.271,-0.28,0.35,-0.05,-0.34,0.05,10.35,92.6,-107
17804,86.300,-0.16,0.30,0.00,-0.29,0.05,10.35,92.6,-107
17805,86.328,-0.16,0.45,0.05,-0.44,-0.05,10.08,92.6,-107
17806,86.357,-0.04,0.36,0.15,-0.15,-0.29,10.08,92.6,-107
17807,86.386,-0.04,0.55,0.05,-0.24,-0.49,10.08,92.6,-107
17808,86.745,0.09,0.48,-0.05,-0.44,0.20,10.35,93.0,-111
17809,86.774,0.24,0.53,-0.05,-0.44,0.29,10.35,93.0,-111
17810,86.802,0.35,0.31,-0.05,-0.29,0.10,10.35,93.0,-111
17811,86.831,0.35,0.33,0.00,-0.29,0.15,10.08,93.0,-111
17812,86.859,0.34,0.39,0.00,-0.39,0.05,10.08,93.0,-111
17813,86.888,0.41,0.50,0.00,-0.49,0.10,10.08,93.0,-111
17814,87.247,0.48,0.94,-0.44,-0.83,0.00,10.35,93.4,-97
17815,87.276,0.40,0.86,-0.44,-0.74,0.05,10.35,93.4,-97
17816,87.304,0.40,0.89,-0.49,-0.74,0.10,10.35,93.4,-97
17817,87.333,0.42,0.92,-0.54,-0.74,0.10,10.08,93.4,-97
17818,87.362,0.41,1.01,-0.74,-0.69,0.10,10.08,93.4,-97
17819,87.390,0.44,0.87,-0.64,-0.59,0.10,10.08,93.4,-97
17820,87.751,0.42,0.50,0.00,-0.49,0.10,10.35,93.8,-95
17821,87.780,0.46,0.56,0.00,-0.54,0.15,10.35,93.8,-95
17822,87.808,0.46,0.51,0.00,-0.49,0.15,10.35,93.8,-95
17823,87.837,0.50,0.57,-0.10,-0.54,0.15,10.19,93.8,-95
17824,87.865,0.47,0.67,-0.05,-0.64,0.20,10.19,93.8,-95
17825,87.894,0.52,0.72,-0.05,-0.69,0.20,10.19,93.8,-95
17826,88.352,0.57,0.70,-0.54,-0.44,0.00,10.35,94.2,-90
17827,88.381,0.65,0.74,-0.59,-0.44,-0.05,10.35,94.2,-90
17828,88.409,0.64,0.77,-0.54,-0.54,-0.10,10.35,94.2,-90
17829,88.438,0.64,0.80,-0.54,-0.59,-0.05,10.64,94.2,-90
17830,88.466,0.57,0.84,-0.49,-0.69,-0.05,10.64,94.2,-90
17831,88.495,0.58,0.82,-0.49,-0.64,-0.15,10.64,94.2,-90
17832,88.854,0.61,0.46,-0.24,-0.39,0.05,10.90,94.5,-104
17833,88.883,0.64,0.39,-0.20,-0.34,0.00,10.90,94.5,-104
17834,88.911,0.63,0.33,-0.15,-0.29,0.00,10.90,94.5,-104
17835,88.940,0.63,0.42,-0.24,-0.34,0.05,10.64,94.5,-104
17836,88.969,0.66,0.51,-0.24,-0.44,0.05,10.64,94.5,-104
17837,88.997,0.75,0.51,-0.24,-0.44,0.10,10.64,94.5,-104
17838,89.357,0.74,0.49,-0.29,-0.39,0.05,10.90,94.8,-104
17839,89.385,0.76,0.47,-0.24,-0.39,0.10,10.90,94.8,-104
17840,89.414,0.77,0.39,-0.24,-0.29,0.05,10.90,94.8,-104
17841,89.442,0.77,0.32,-0.24,-0.20,0.05,10.64,94.8,-104
17842,89.471,0.65,0.46,-0.39,-0.24,0.00,10.64,94.8,-104
17843,89.500,0.72,0.44,-0.39,-0.20,0.00,10.64,94.8,-104
17844,89.859,0.68,0.81,-0.34,-0.74,0.05,10.90,95.1,-96
17845,89.888,0.67,0.79,-0.39,-0.69,0.05,10.90,95.1,-96
17846,89.916,0.70,0.78,-0.44,-0.64,0.10,10.90,95.1,-96
17847,89.945,0.70,0.57,-0.34,-0.44,0.10,10.76,95.1,-96
17848,89.973,0.66,0.51,-0.24,-0.44,0.05,10.76,95.1,-96
17849,90.002,0.63,0.47,-0.29,-0.34,0.15,10.76,95.1,-96
17850,90.461,0.78,1.36,-0.88,-1.03,0.10,10.90,95.4,-90
17851,90.490,0.72,1.33,-0.78,-1.08,0.00,10.90,95.4,-90
17852,90.518,0.65,1.14,-0.49,-1.03,0.05,10.90,95.4,-90
17853,90.547,0.65,1.10,-0.49,-0.98,0.00,10.64,95.4,-90
17854,90.576,0.62,0.91,-0.54,-0.74,0.05,10.64,95.4,-90
17855,90.604,0.71,0.89,-0.49,-0.74,0.05,10.64,95.4,-90
17856,90.964,0.71,0.74,-0.44,-0.59,0.00,10.90,95.7,-92
17857,90.992,0.64,0.64,-0.34,-0.54,0.05,10.90,95.7,-92
17858,91.021,0.71,0.55,-0.24,-0.49,0.05,10.90,95.7,-92
17859,91.049,0.71,0.68,-0.24,-0.64,-0.05,10.64,95.7,-92
17860,91.078,0.74,0.73,-0.24,-0.69,-0.05,10.64,95.7,-92
17861,91.107,0.69,0.72,-0.20,-0.69,-0.05,10.64,95.7,-92
17862,91.466,0.79,0.89,-0.39,-0.64,0.49,10.90,96.0,-99
17863,91.495,0.72,0.96,-0.54,-0.59,0.54,10.90,96.0,-99
17864,91.523,0.63,1.08,-0.74,-0.69,0.39,10.90,96.0,-99
17865,91.552,0.63,1.31,-0.98,-0.83,0.24,10.64,96.0,-99
17866,91.580,0.61,1.25,-0.83,-0.93,0.05,10.64,96.0,-99
17867,91.609,0.70,1.20,-0.69,-0.98,0.05,10.64,96.0,-99
17868,91.968,0.76,0.99,-0.59,-0.78,0.10,10.90,96.2,-92
17869,91.997,0.69,1.01,-0.49,-0.88,0.05,10.90,96.2,-92
17870,92.026,0.65,0.99,-0.44,-0.88,0.10,10.90,96.2,-92
17871,92.054,0.65,0.90,-0.34,-0.83,0.05,10.76,96.2,-92
17872,92.083,0.60,0.77,-0.44,-0.64,0.00,10.76,96.2,-92
17873,92.111,0.61,0.75,-0.39,-0.64,0.00,10.76,96.2,-92
17874,92.470,0.65,0.74,-0.34,-0.64,0.15,11.02,96.4,-96
17875,92.498,0.61,0.77,-0.34,-0.69,0.10,11.02,96.4,-96
17876,92.527,0.70,0.82,-0.34,-0.74,0.15,11.02,96.4,-96
17877,92.556,0.70,0.78,-0.34,-0.69,0.15,10.76,96.4,-96
17878,92.584,0.64,0.82,-0.44,-0.69,0.10,10.76,96.4,-96
17879,92.613,0.77,0.86,-0.44,-0.74,0.10,10.76,96.4,-96
17880,93.072,0.89,0.97,-0.69,-0.64,-0.24,10.91,96.6,-99
17881,93.101,0.81,0.95,-0.64,-0.64,-0.29,10.91,96.6,-99
17882,93.129,0.78,0.97,-0.64,-0.69,-0.24,10.91,96.6,-99
17883,93.158,0.78,1.00,-0.64,-0.69,-0.34,10.64,96.6,-99
17884,93.187,0.69,0.93,-0.64,-0.64,-0.24,10.64,96.6,-99
17885,93.215,0.70,0.93,-0.64,-0.64,-0.24,10.64,96.6,-99
17886,93.575,0.81,0.57,-0.29,-0.49,-0.05,10.91,96.8,-93
17887,93.603,0.78,0.61,-0.34,-0.49,-0.10,10.91,96.8,-93
17888,93.632,0.78,0.55,-0.24,-0.49,-0.05,10.91,96.8,-93
17889,93.660,0.78,0.61,-0.34,-0.49,-0.10,11.26,96.8,-93
17890,93.689,0.72,0.64,-0.24,-0.59,-0.05,11.26,96.8,-93
17891,93.718,0.71,0.66,-0.29,-0.59,-0.05,11.26,96.8,-93
17892,94.077,0.73,0.76,-0.54,-0.44,-0.29,11.52,97.0,-97
17893,94.106,0.70,0.69,-0.49,-0.39,-0.29,11.52,97.0,-97
17894,94.134,0.69,0.78,-0.54,-0.44,-0.34,11.52,97.0,-97
17895,94.163,0.69,0.81,-0.59,-0.39,-0.39,11.40,97.0,-97
17896,94.191,0.59,0.81,-0.59,-0.44,-0.34,11.40,97.0,-97
17897,94.220,0.64,0.81,-0.59,-0.44,-0.34,11.40,97.0,-97
17898,94.579,0.67,0.44,-0.15,-0.39,-0.15,11.65,97.2,-92
17899,94.608,0.61,0.49,-0.20,-0.44,-0.10,11.65,97.2,-92
17900,94.636,0.62,0.46,-0.20,-0.39,-0.15,11.65,97.2,-92
17901,94.665,0.62,0.44,-0.29,-0.29,-0.15,11.40,97.2,-92
17902,94.694,0.65,0.45,-0.20,-0.39,-0.10,11.40,97.2,-92
17903,94.722,0.66,0.53,-0.29,-0.44,-0.05,11.40,97.2,-92
17904,95.182,0.70,1.07,-0.29,-0.88,-0.54,11.52,97.3,-96
17905,95.210,0.74,0.99,-0.29,-0.74,-0.59,11.52,97.3,-96
17906,95.239,0.82,0.66,-0.29,-0.44,-0.39,11.52,97.3,-96
17907,95.268,0.82,0.57,-0.24,-0.39,-0.34,11.26,97.3,-96
17908,95.296,0.75,0.51,-0.29,-0.29,-0.29,11.26,97.3,-96
17909,95.325,0.79,0.56,-0.29,-0.44,-0.20,11.26,97.3,-96
17910,95.684,0.90,0.92,-0.59,-0.64,-0.29,11.52,97.5,-89
17911,95.713,0.82,0.82,-0.34,-0.69,-0.29,11.52,97.5,-89
17912,95.741,0.78,0.98,-0.15,-0.88,-0.39,11.52,97.5,-89
17913,95.770,0.78,0.96,-0.15,-0.88,-0.34,11.26,97.5,-89
17914,95.798,0.77,0.89,-0.24,-0.83,-0.20,11.26,97.5,-89
17915,95.827,0.80,0.88,-0.29,-0.83,-0.05,11.26,97.5,-89
17916,96.186,0.81,0.97,-0.49,-0.83,-0.05,11.52,97.6,-89
17917,96.215,0.74,0.99,-0.44,-0.88,-0.05,11.52,97.6,-89
17918,96.244,0.77,1.02,-0.64,-0.78,-0.10,11.52,97.6,-89
17919,96.272,0.77,1.11,-0.78,-0.78,-0.05,11.27,97.6,-89
17920,96.301,0.69,1.19,-0.93,-0.74,0.00,11.27,97.6,-89
17921,96.329,0.73,1.11,-0.78,-0.78,-0.05,11.27,97.6,-89
17922,96.689,0.79,0.77,-0.49,-0.54,-0.24,11.52,97.8,-88
17923,96.717,0.77,0.77,-0.49,-0.54,-0.24,11.52,97.8,-88
17924,96.746,0.81,0.86,-0.64,-0.54,-0.20,11.52,97.8,-88
17925,96.775,0.81,0.92,-0.59,-0.69,-0.20,11.40,97.8,-88
17926,96.803,0.75,0.97,-0.64,-0.69,-0.24,11.40,97.8,-88
17927,96.832,0.75,1.08,-0.64,-0.83,-0.24,11.40,97.8,-88
17928,97.191,0.74,0.57,-0.39,-0.39,-0.15,11.65,97.9,-90
17929,97.220,0.73,0.63,-0.39,-0.49,-0.05,11.65,97.9,-90
17930,97.248,0.71,0.71,-0.39,-0.59,-0.05,11.65,97.9,-90
17931,97.277,0.71,0.74,-0.44,-0.59,-0.05,11.40,97.9,-90
17932,97.305,0.66,0.79,-0.39,-0.69,-0.05,11.40,97.9,-90
17933,97.334,0.69,0.89,-0.49,-0.74,-0.10,11.40,97.9,-90
17934,97.793,0.73,0.74,-0.49,-0.39,-0.39,11.52,98.0,-93
17935,97.822,0.67,0.77,-0.54,-0.39,-0.39,11.52,98.0,-93
17936,97.851,0.64,0.71,-0.44,-0.39,-0.39,11.52,98.0,-93
17937,97.879,0.64,0.77,-0.49,-0.39,-0.44,11.26,98.0,-93
17938,97.908,0.64,0.79,-0.49,-0.44,-0.44,11.26,98.0,-93
17939,97.936,0.66,0.80,-0.49,-0.39,-0.49,11.26,98.0,-93
17940,98.295,0.74,0.61,-0.24,-0.54,-0.15,11.52,98.2,-95
17941,98.324,0.69,0.49,-0.20,-0.44,-0.10,11.52,98.2,-95
17942,98.352,0.76,0.44,-0.20,-0.39,-0.05,11.52,98.2,-95
17943,98.381,0.76,0.51,-0.24,-0.44,-0.05,11.27,98.2,-95
17944,98.409,0.74,0.59,-0.24,-0.54,0.00,11.27,98.2,-95
17945,98.438,0.73,0.67,-0.20,-0.64,0.05,11.27,98.2,-95
17946,98.797,0.70,0.70,-0.29,-0.64,-0.05,11.52,98.3,-111
17947,98.826,0.70,0.64,-0.24,-0.59,0.00,11.52,98.3,-111
17948,98.854,0.68,0.50,-0.10,-0.49,-0.05,11.52,98.3,-111
17949,98.883,0.68,0.50,-0.10,-0.49,0.05,11.40,98.3,-111
17950,98.911,0.66,0.45,-0.10,-0.44,0.00,11.40,98.3,-111
17951,98.940,0.72,0.44,-0.20,-0.39,0.00,11.40,98.3,-111
17952,99.299,0.71,0.66,-0.15,-0.54,0.34,11.65,98.4,-90
17953,99.328,0.71,0.65,-0.20,-0.44,0.44,11.65,98.4,-90
17954,99.357,0.78,0.55,-0.29,-0.24,0.39,11.65,98.4,-90
17955,99.385,0.78,0.51,-0.29,-0.24,0.34,11.40,98.4,-90
17956,99.414,0.75,0.53,-0.39,-0.10,0.34,11.40,98.4,-90
17957,99.442,0.73,0.40,-0.29,-0.20,0.20,11.40,98.4,-90
17958,99.802,0.82,0.87,-0.54,0.00,0.69,11.65,98.5,-99
17959,99.830,0.81,0.81,-0.49,0.05,0.64,11.65,98.5,-99
17960,99.859,0.81,0.92,-0.54,0.10,0.74,11.65,98.5,-99
17961,99.887,0.78,0.82,-0.44,0.05,0.69,11.40,98.5,-99
17962,99.916,0.81,0.76,-0.39,0.15,0.64,11.40,98.5,-99
17963,99.945,0.91,0.62,-0.34,0.15,0.49,11.40,98.5,-99
17964,100.404,0.85,0.78,0.05,0.24,0.74,11.52,98.5,-97
17965,100.433,0.88,0.70,0.10,0.10,0.69,11.52,98.5,-97
17966,100.461,0.88,0.68,0.20,0.15,0.64,11.52,98.5,-97
17967,100.490,0.88,0.72,0.15,0.15,0.69,11.27,98.5,-97
17968,100.518,0.85,0.57,0.15,0.24,0.49,11.27,98.5,-97
17969,100.547,0.93,0.54,0.20,0.24,0.44,11.27,98.5,-97
17970,100.906,1.08,1.21,0.20,0.69,0.98,11.52,98.6,-98
17971,100.935,1.05,1.27,0.20,0.78,0.98,11.52,98.6,-98
17972,100.964,1.09,1.24,0.00,0.69,1.03,11.52,98.6,-98
17973,100.992,1.09,1.16,-0.20,0.59,0.98,11.26,98.6,-98
17974,101.021,1.10,1.20,-0.29,0.54,1.03,11.26,98.6,-98
17975,101.049,1.10,1.02,-0.15,0.49,0.88,11.26,98.6,-98
17976,101.409,1.15,0.86,0.10,0.34,0.78,11.52,98.7,-89
17977,101.437,1.13,0.95,0.24,0.24,0.88,11.52,98.7,-89
17978,101.466,1.12,0.79,0.20,0.20,0.74,11.52,98.7,-89
17979,101.494,1.12,0.82,0.15,0.20,0.78,11.40,98.7,-89
17980,101.523,1.05,0.92,0.15,0.20,0.88,11.40,98.7,-89
17981,101.552,0.99,1.03,0.05,0.10,1.03,11.40,98.7,-89
17982,101.911,1.02,0.40,0.20,0.24,0.24,11.65,98.8,-88
17983,101.940,0.96,0.44,0.20,0.20,0.34,11.65,98.8,-88
17984,101.968,1.01,0.48,0.24,0.15,0.39,11.65,98.8,-88
17985,101.997,1.01,0.67,0.20,0.10,0.64,11.40,98.8,-88
17986,102.025,0.99,0.75,0.29,0.00,0.69,11.40,98.8,-88
17987,102.054,0.91,0.88,0.29,-0.05,0.83,11.40,98.8,-88
17988,102.413,0.83,0.79,-0.44,-0.44,0.49,11.65,98.9,-91
17989,102.442,0.85,0.92,-0.44,-0.49,0.64,11.65,98.9,-91
17990,102.471,0.69,0.86,-0.39,-0.49,0.59,11.65,98.9,-91
17991,102.499,0.69,0.83,-0.29,-0.64,0.44,11.40,98.9,-91
17992,102.528,0.68,0.76,-0.29,-0.64,0.29,11.40,98.9,-91
17993,102.556,0.59,0.73,-0.34,-0.54,0.34,11.40,98.9,-91
17994,103.016,0.68,0.65,-0.44,-0.20,0.44,11.52,98.9,-87
17995,103.044,0.61,0.64,-0.39,-0.24,0.44,11.52,98.9,-87
17996,103.073,0.66,0.71,-0.39,-0.24,0.54,11.52,98.9,-87
17997,103.101,0.66,0.70,-0.29,-0.24,0.59,11.26,98.9,-87
17998,103.130,0.66,0.80,-0.44,-0.20,0.64,11.26,98.9,-87
17999,103.159,0.72,0.68,-0.44,-0.15,0.49,11.26,98.9,-87
