sid,time,altitude,acceleration,acceleration-X,acceleration-Y,acceleration-Z,SPS,Reliability,RSSI
1308,-0.749,0.00,0.90,0.78,0.10,-0.44,0.00,100.0,-71
1309,-0.549,-0.03,0.98,0.93,0.20,-0.24,0.00,100.0,-71
1310,-0.349,-0.01,1.01,0.93,0.20,-0.34,0.00,100.0,-71
1311,-0.149,-0.01,0.94,0.88,0.15,-0.29,0.00,100.0,-71
1312,0.051,-0.01,0.97,0.88,0.20,-0.34,0.00,100.0,-71
1313,0.251,-0.09,0.95,0.88,0.20,-0.29,0.00,100.0,-71
1314,0.335,-0.01,0.91,0.78,0.15,-0.44,5.53,100.0,-72
1315,0.419,-0.06,1.01,0.93,0.20,-0.34,5.14,100.0,-72
1316,0.503,-0.11,0.93,0.83,0.24,-0.34,4.79,100.0,-72
1317,0.587,-0.11,0.95,0.88,0.20,-0.29,4.49,100.0,-72
1318,0.672,-0.09,0.95,0.88,0.20,-0.29,4.22,100.0,-72
1319,0.756,-0.05,1.00,0.93,0.20,-0.29,3.99,100.0,-72
1320,0.856,-0.07,0.92,0.78,0.20,-0.44,7.48,100.0,-75
1321,0.956,-0.14,0.94,0.88,0.20,-0.24,7.04,100.0,-75
1322,1.056,-0.06,1.00,0.93,0.20,-0.29,6.65,100.0,-75
1323,1.156,-0.06,0.97,0.88,0.20,-0.34,6.30,100.0,-75
1324,1.256,-0.08,0.98,0.88,0.20,-0.39,5.99,100.0,-75
1325,1.356,-0.07,0.97,0.88,0.20,-0.34,5.70,100.0,-75
1326,1.440,-0.05,0.90,0.78,0.10,-0.44,8.23,100.0,-76
1327,1.523,-0.04,0.95,0.88,0.20,-0.29,7.92,100.0,-76
1328,1.607,0.00,0.94,0.88,0.20,-0.24,7.64,100.0,-76
1329,1.691,0.00,0.97,0.88,0.20,-0.34,7.38,100.0,-76
1330,1.774,-0.05,1.00,0.93,0.20,-0.29,7.13,100.0,-76
1331,1.858,-0.10,0.92,0.83,0.20,-0.34,6.90,100.0,-76
1332,1.942,0.04,0.89,0.78,0.15,-0.39,8.92,100.0,-72
1333,2.026,-0.01,0.98,0.88,0.24,-0.34,8.65,100.0,-72
1334,2.110,-0.04,0.99,0.93,0.24,-0.24,8.39,100.0,-72
1335,2.194,-0.04,0.89,0.83,0.20,-0.24,8.16,100.0,-72
1336,2.278,-0.03,1.05,0.93,0.29,-0.39,7.93,100.0,-72
1337,2.362,-0.12,0.96,0.88,0.15,-0.34,7.72,100.0,-72
1338,2.446,-0.07,1.00,0.83,0.10,-0.54,9.39,100.0,-73
1339,2.529,-0.12,1.01,0.93,0.20,-0.34,9.15,100.0,-73
1340,2.613,-0.11,0.94,0.88,0.20,-0.24,8.92,100.0,-73
1341,2.696,-0.11,1.00,0.88,0.24,-0.39,8.71,100.0,-73
1342,2.780,-0.08,0.98,0.88,0.20,-0.39,8.50,100.0,-73
1343,2.864,-0.14,0.97,0.88,0.20,-0.34,8.30,100.0,-73
1344,2.963,-0.05,0.87,0.78,0.15,-0.34,9.70,100.0,-76
1345,3.063,-0.09,1.01,0.93,0.24,-0.29,9.44,100.0,-76
1346,3.163,-0.11,1.02,0.88,0.24,-0.44,9.20,100.0,-76
1347,3.263,-0.11,1.00,0.93,0.20,-0.29,8.97,100.0,-76
1348,3.363,-0.11,0.97,0.88,0.20,-0.34,8.76,100.0,-76
1349,3.462,-0.10,0.92,0.83,0.24,-0.29,8.55,100.0,-76
1350,3.547,0.02,0.93,0.83,0.10,-0.39,9.78,100.0,-80
1351,3.631,-0.05,0.98,0.88,0.24,-0.34,9.59,100.0,-80
1352,3.715,0.00,1.00,0.93,0.15,-0.34,9.41,100.0,-80
1353,3.800,0.00,0.98,0.88,0.24,-0.34,9.23,100.0,-80
1354,3.884,-0.08,0.90,0.83,0.20,-0.29,9.07,100.0,-80
1355,3.968,-0.07,0.98,0.88,0.24,-0.34,8.90,100.0,-80
1356,4.052,-0.05,0.95,0.83,0.15,-0.44,10.00,100.0,-82
1357,4.135,-0.11,0.98,0.88,0.24,-0.34,9.83,100.0,-82
1358,4.219,-0.11,1.02,0.93,0.15,-0.39,9.66,100.0,-82
1359,4.303,-0.11,0.93,0.83,0.24,-0.34,9.50,100.0,-82
1360,4.386,-0.14,0.95,0.88,0.20,-0.29,9.35,100.0,-82
1361,4.470,-0.11,1.01,0.93,0.20,-0.34,9.20,100.0,-82
1362,4.554,-0.04,0.93,0.83,0.15,-0.39,10.18,100.0,-71
1363,4.637,-0.04,1.01,0.93,0.24,-0.29,10.03,100.0,-71
1364,4.721,-0.01,0.99,0.88,0.29,-0.34,9.87,100.0,-71
1365,4.804,-0.01,0.97,0.88,0.20,-0.34,9.72,100.0,-71
1366,4.888,-0.10,1.04,0.93,0.24,-0.39,9.58,100.0,-71
1367,4.971,-0.13,0.93,0.83,0.24,-0.34,9.44,100.0,-71
1368,5.071,-0.01,0.90,0.78,0.20,-0.39,10.31,100.0,-73
1369,5.171,-0.01,1.02,0.93,0.24,-0.34,10.13,100.0,-73
1370,5.272,-0.01,0.99,0.93,0.15,-0.29,9.97,100.0,-73
1371,5.372,-0.01,0.94,0.88,0.15,-0.29,9.80,100.0,-73
1372,5.472,-0.01,0.98,0.93,0.20,-0.24,9.65,100.0,-73
1373,5.572,-0.04,0.96,0.88,0.24,-0.29,9.49,100.0,-73
1374,5.656,-0.05,0.94,0.78,0.15,-0.49,10.31,100.0,-69
1375,5.739,-0.10,1.02,0.93,0.24,-0.34,10.17,100.0,-69
1376,5.823,-0.15,0.96,0.88,0.24,-0.29,10.04,100.0,-69
1377,5.907,-0.15,0.98,0.88,0.24,-0.34,9.92,100.0,-69
1378,5.990,-0.12,0.98,0.88,0.24,-0.34,9.79,100.0,-69
1379,6.074,-0.12,0.95,0.88,0.20,-0.29,9.67,100.0,-69
1380,6.158,-0.10,0.96,0.83,0.20,-0.44,10.43,100.0,-66
1381,6.241,-0.15,1.00,0.93,0.15,-0.34,10.30,100.0,-66
1382,6.325,-0.16,0.98,0.88,0.24,-0.34,10.18,100.0,-66
1383,6.408,-0.16,0.98,0.88,0.24,-0.34,10.06,100.0,-66
1384,6.492,-0.17,1.00,0.93,0.20,-0.29,9.94,100.0,-66
1385,6.576,-0.11,0.97,0.88,0.20,-0.34,9.83,100.0,-66
1386,6.659,-0.02,0.93,0.83,0.15,-0.39,10.53,100.0,-71
1387,6.743,-0.02,1.01,0.93,0.20,-0.34,10.41,100.0,-71
1388,6.827,-0.01,0.96,0.88,0.24,-0.29,10.30,100.0,-71
1389,6.910,-0.01,0.95,0.88,0.20,-0.29,10.18,100.0,-71
1390,6.994,-0.03,1.01,0.93,0.20,-0.34,10.07,100.0,-71
1391,7.077,-0.04,0.94,0.88,0.15,-0.29,9.97,100.0,-71
1392,7.178,-0.01,0.91,0.78,0.15,-0.44,10.60,100.0,-77
1393,7.278,-0.16,0.98,0.93,0.20,-0.24,10.46,100.0,-77
1394,7.378,-0.17,1.01,0.93,0.20,-0.34,10.34,100.0,-77
1395,7.479,-0.17,1.03,0.93,0.20,-0.39,10.21,100.0,-77
1396,7.579,-0.14,0.95,0.88,0.20,-0.29,10.09,100.0,-77
1397,7.679,-0.11,1.01,0.93,0.20,-0.34,9.97,100.0,-77
1398,7.763,-0.02,0.89,0.78,0.15,-0.39,10.57,100.0,-76
1399,7.846,-0.04,1.00,0.93,0.20,-0.29,10.47,100.0,-76
1400,7.930,-0.08,0.97,0.88,0.20,-0.34,10.37,100.0,-76
1401,8.014,-0.08,0.96,0.88,0.24,-0.29,10.27,100.0,-76
1402,8.097,-0.14,0.94,0.88,0.15,-0.29,10.17,100.0,-76
1403,8.181,-0.09,1.02,0.93,0.24,-0.34,10.08,100.0,-76
1404,8.265,-0.07,0.93,0.78,0.10,-0.49,10.65,100.0,-77
1405,8.349,-0.12,0.95,0.88,0.20,-0.29,10.55,100.0,-77
1406,8.432,-0.08,0.90,0.83,0.20,-0.29,10.46,100.0,-77
1407,8.516,-0.08,0.92,0.83,0.24,-0.29,10.36,100.0,-77
1408,8.600,-0.06,1.01,0.93,0.20,-0.34,10.49,100.0,-77
1409,8.683,-0.06,0.97,0.88,0.20,-0.34,10.63,100.0,-77
1410,8.767,-0.04,0.89,0.78,0.15,-0.39,11.44,100.0,-76
1411,8.850,-0.09,0.90,0.83,0.20,-0.29,11.59,100.0,-76
1412,8.934,-0.03,0.94,0.83,0.20,-0.39,11.75,100.0,-76
1413,9.018,-0.03,0.94,0.88,0.20,-0.24,11.06,100.0,-76
1414,9.101,0.01,0.98,0.88,0.24,-0.34,11.06,100.0,-76
1415,9.185,0.00,0.96,0.88,0.15,-0.34,11.06,100.0,-76
1416,9.268,-0.02,0.89,0.78,0.15,-0.39,11.75,100.0,-86
1417,9.352,-0.09,1.01,0.93,0.20,-0.34,11.75,100.0,-86
1418,9.436,-0.04,0.95,0.88,0.24,-0.24,11.75,100.0,-86
1419,9.519,-0.04,0.98,0.93,0.20,-0.24,11.08,100.0,-86
1420,9.603,0.01,1.01,0.93,0.24,-0.29,11.10,100.0,-86
1421,9.686,-0.08,0.97,0.88,0.20,-0.34,11.12,100.0,-86
1422,9.787,-0.06,0.94,0.78,0.15,-0.49,11.82,100.0,-109
1423,9.887,-0.07,0.99,0.93,0.24,-0.24,11.82,100.0,-109
1424,9.987,-0.05,0.98,0.88,0.24,-0.34,11.82,100.0,-109
1425,10.087,-0.05,0.91,0.83,0.15,-0.34,11.10,100.0,-109
1426,10.188,-0.08,0.98,0.88,0.24,-0.34,11.08,100.0,-109
1427,10.288,-0.12,0.96,0.88,0.24,-0.29,11.06,100.0,-109
1428,10.372,-0.04,0.91,0.78,0.15,-0.44,11.75,100.0,-87
1429,10.455,-0.03,0.95,0.88,0.20,-0.29,11.75,100.0,-87
1430,10.539,0.08,0.97,0.88,0.20,-0.34,11.75,100.0,-87
1431,10.623,0.08,1.03,0.93,0.20,-0.39,11.06,100.0,-87
1432,10.706,-0.03,0.89,0.83,0.20,-0.24,11.06,100.0,-87
1433,10.790,-0.04,0.94,0.88,0.20,-0.24,11.06,100.0,-87
1434,10.873,0.01,0.93,0.83,0.15,-0.39,11.75,100.0,-84
1435,10.957,0.00,0.96,0.88,0.24,-0.29,11.75,100.0,-84
1436,11.041,0.04,0.94,0.88,0.15,-0.29,11.75,100.0,-84
1437,11.124,0.04,0.96,0.88,0.24,-0.29,11.06,100.0,-84
1438,11.208,0.04,1.00,0.93,0.15,-0.34,11.06,100.0,-84
1439,11.292,-0.06,0.97,0.88,0.20,-0.34,11.06,100.0,-84
1440,11.375,-0.10,0.91,0.78,0.24,-0.39,11.75,100.0,-84
1441,11.459,-0.17,1.02,0.93,0.24,-0.34,11.75,100.0,-84
1442,11.543,-0.12,0.95,0.88,0.20,-0.29,11.75,100.0,-84
1443,11.626,-0.12,0.94,0.88,0.15,-0.29,11.08,100.0,-84
1444,11.710,-0.08,0.94,0.88,0.20,-0.24,11.10,100.0,-84
1445,11.793,-0.08,0.94,0.88,0.15,-0.29,11.12,100.0,-84
1446,11.894,-0.04,0.95,0.83,0.10,-0.44,11.82,100.0,-86
1447,11.994,0.02,0.96,0.88,0.24,-0.29,11.82,100.0,-86
1448,12.094,0.01,0.96,0.88,0.24,-0.29,11.82,100.0,-86
1449,12.195,0.01,0.96,0.88,0.15,-0.34,11.10,100.0,-86
1450,12.295,-0.04,0.98,0.88,0.20,-0.39,11.08,100.0,-86
1451,12.395,-0.08,0.95,0.88,0.20,-0.29,11.06,100.0,-86
1452,12.479,-0.05,0.93,0.83,0.15,-0.39,11.75,100.0,-79
1453,12.562,-0.06,0.97,0.88,0.20,-0.34,11.75,100.0,-79
1454,12.646,-0.09,0.98,0.88,0.24,-0.34,11.75,100.0,-79
1455,12.730,-0.09,1.04,0.93,0.24,-0.39,11.06,100.0,-79
1456,12.813,-0.18,0.95,0.88,0.24,-0.24,11.06,100.0,-79
1457,12.897,-0.10,0.95,0.88,0.20,-0.29,11.06,100.0,-79
1458,12.981,-0.06,0.91,0.78,0.15,-0.44,11.75,100.0,-74
1459,13.064,0.00,0.98,0.88,0.24,-0.34,11.75,100.0,-74
1460,13.148,-0.03,1.03,0.93,0.20,-0.39,11.75,100.0,-74
1461,13.231,-0.03,0.97,0.88,0.20,-0.34,11.06,100.0,-74
1462,13.315,-0.10,0.95,0.88,0.20,-0.29,11.06,100.0,-74
1463,13.399,-0.15,0.89,0.83,0.20,-0.24,11.06,100.0,-74
1464,13.482,-0.08,0.91,0.78,0.15,-0.44,11.75,100.0,-71
1465,13.566,-0.10,0.84,0.78,0.20,-0.24,11.75,100.0,-71
1466,13.650,-0.12,1.06,0.98,0.20,-0.34,11.75,100.0,-71
1467,13.733,-0.12,1.02,0.93,0.24,-0.34,11.08,100.0,-71
1468,13.817,-0.20,1.02,0.93,0.24,-0.34,11.10,100.0,-71
1469,13.901,-0.19,0.95,0.88,0.20,-0.29,11.12,100.0,-71
1470,14.001,-0.09,0.95,0.83,0.15,-0.44,11.82,100.0,-74
1471,14.101,-0.18,1.01,0.93,0.20,-0.34,11.82,100.0,-74
1472,14.202,-0.10,0.95,0.88,0.20,-0.29,11.82,100.0,-74
1473,14.302,-0.10,0.90,0.83,0.20,-0.29,11.10,100.0,-74
1474,14.402,-0.13,1.02,0.93,0.24,-0.34,11.08,100.0,-74
1475,14.502,-0.07,1.03,0.93,0.20,-0.39,11.06,100.0,-74
1476,14.586,0.07,0.95,0.83,0.10,-0.44,11.75,100.0,-77
1477,14.670,-0.01,1.00,0.93,0.20,-0.29,11.75,100.0,-77
1478,14.753,0.05,0.94,0.88,0.20,-0.24,11.75,100.0,-77
1479,14.837,0.05,0.92,0.83,0.24,-0.29,11.06,100.0,-77
1480,14.921,0.03,0.95,0.88,0.24,-0.24,11.06,100.0,-77
1481,15.004,0.05,0.97,0.88,0.20,-0.34,11.06,100.0,-77
1482,15.088,0.06,0.90,0.78,0.10,-0.44,11.75,100.0,-79
1483,15.171,0.00,0.97,0.88,0.20,-0.34,11.75,100.0,-79
1484,15.255,0.00,0.97,0.88,0.20,-0.34,11.75,100.0,-79
1485,15.339,0.00,0.94,0.88,0.20,-0.24,11.06,100.0,-79
1486,15.422,-0.06,0.97,0.88,0.20,-0.34,11.06,100.0,-79
1487,15.506,-0.06,1.01,0.93,0.20,-0.34,11.06,100.0,-79
1488,15.590,-0.02,0.95,0.83,0.15,-0.44,11.75,100.0,-76
1489,15.673,-0.03,0.98,0.88,0.24,-0.34,11.75,100.0,-76
1490,15.757,0.01,1.03,0.93,0.20,-0.39,11.75,100.0,-76
1491,15.840,0.01,0.99,0.93,0.15,-0.29,11.08,100.0,-76
1492,15.924,-0.03,0.95,0.88,0.20,-0.29,11.10,100.0,-76
1493,16.008,-0.05,1.03,0.93,0.20,-0.39,11.12,100.0,-76
1494,16.108,0.06,0.95,0.83,0.15,-0.44,11.82,100.0,-74
1495,16.208,0.05,0.97,0.88,0.20,-0.34,11.82,100.0,-74
1496,16.309,0.05,1.02,0.93,0.24,-0.34,11.82,100.0,-74
1497,16.409,0.05,1.02,0.93,0.24,-0.34,11.10,100.0,-74
1498,16.509,0.00,1.00,0.88,0.24,-0.39,11.08,100.0,-74
1499,16.609,0.00,1.00,0.93,0.20,-0.29,11.06,100.0,-74
1500,16.693,0.07,0.93,0.78,0.24,-0.44,11.75,100.0,-74
1501,16.777,0.00,1.02,0.93,0.24,-0.34,11.75,100.0,-74
1502,16.860,0.07,1.00,0.93,0.20,-0.29,11.75,100.0,-74
1503,16.944,0.07,1.01,0.93,0.24,-0.29,11.06,100.0,-74
1504,17.027,0.02,0.98,0.88,0.24,-0.34,11.06,100.0,-74
1505,17.111,0.02,0.97,0.88,0.20,-0.34,11.06,100.0,-74
1506,17.195,0.13,0.89,0.74,0.10,-0.49,11.75,100.0,-73
1507,17.278,0.06,0.98,0.88,0.20,-0.39,11.75,100.0,-73
1508,17.362,0.10,0.95,0.88,0.20,-0.29,11.75,100.0,-73
1509,17.446,0.10,0.97,0.88,0.20,-0.34,11.06,100.0,-73
1510,17.529,0.06,1.02,0.93,0.24,-0.34,11.06,100.0,-73
1511,17.613,0.02,0.92,0.83,0.24,-0.29,11.06,100.0,-73
1512,17.696,0.09,0.98,0.88,0.15,-0.39,11.75,100.0,-73
1513,17.780,0.03,0.98,0.88,0.24,-0.34,11.75,100.0,-73
1514,17.864,-0.04,0.97,0.88,0.20,-0.34,11.75,100.0,-73
1515,17.947,-0.04,1.04,0.93,0.15,-0.44,11.06,100.0,-73
1516,18.031,0.02,0.97,0.88,0.20,-0.34,11.06,100.0,-73
1517,18.115,0.03,0.90,0.83,0.20,-0.29,11.06,100.0,-73
1518,18.198,0.09,0.93,0.83,0.10,-0.39,11.75,100.0,-73
1519,18.282,0.05,1.01,0.93,0.20,-0.34,11.75,100.0,-73
1520,18.366,0.03,0.95,0.88,0.20,-0.29,11.75,100.0,-73
1521,18.449,0.03,1.33,1.13,0.29,-0.64,11.08,100.0,-73
1522,18.533,0.15,0.98,0.83,0.34,-0.39,11.10,100.0,-73
1523,18.616,0.16,0.84,0.78,0.24,-0.20,11.12,100.0,-73
1524,18.717,0.20,2.18,2.16,0.15,-0.29,11.82,100.0,-80
1525,18.817,0.82,2.22,2.20,0.20,-0.20,11.82,100.0,-80
1526,18.917,1.39,2.22,2.20,0.20,-0.20,11.82,100.0,-80
1527,19.018,1.39,2.22,2.20,0.20,-0.15,11.10,100.0,-80
1528,19.118,1.87,2.22,2.20,0.20,-0.15,11.08,100.0,-80
1529,19.218,2.33,2.12,2.11,0.15,-0.20,11.06,100.0,-80
1530,19.302,2.88,0.90,0.83,0.05,-0.34,11.75,100.0,-84
1531,19.385,4.83,1.82,1.81,0.15,-0.15,11.75,100.0,-84
1532,19.469,6.27,2.61,2.60,0.20,-0.15,11.75,100.0,-84
1533,19.553,6.27,4.42,4.41,0.20,-0.10,11.06,100.0,-84
1534,19.636,7.53,5.64,5.63,0.29,0.00,11.06,100.0,-84
1535,19.720,8.40,6.33,6.32,0.39,0.05,11.06,100.0,-84
1536,19.803,6.24,2.21,2.20,0.10,-0.15,11.75,100.0,-82
1537,19.887,11.09,2.32,2.30,0.20,-0.15,11.75,100.0,-82
1538,19.971,14.92,2.32,2.30,0.24,-0.05,11.75,100.0,-82
1539,20.054,14.92,2.31,2.30,0.10,-0.10,11.06,100.0,-82
1540,20.138,18.03,2.27,2.25,0.24,-0.15,11.06,100.0,-82
1541,20.222,20.59,2.22,2.20,0.20,-0.20,11.06,100.0,-82
1542,20.305,22.95,0.65,-0.54,0.10,-0.34,11.75,100.0,-90
1543,20.389,27.81,0.48,-0.39,0.15,-0.24,11.75,100.0,-90
1544,20.473,31.67,0.48,-0.39,0.20,-0.20,11.75,100.0,-90
1545,20.556,31.67,0.54,-0.44,0.20,-0.24,11.08,100.0,-90
1546,20.640,34.66,0.44,-0.39,0.15,-0.15,11.10,100.0,-90
1547,20.724,37.09,0.55,-0.44,0.15,-0.29,11.13,100.0,-90
1548,20.824,39.17,0.50,-0.39,0.10,-0.29,11.82,100.0,-90
1549,20.924,43.21,0.47,-0.34,0.15,-0.29,11.82,100.0,-90
1550,21.024,46.42,0.46,-0.29,0.20,-0.29,11.82,100.0,-90
1551,21.125,46.42,0.43,-0.29,0.20,-0.24,11.10,100.0,-90
1552,21.225,49.03,0.36,-0.24,0.10,-0.24,11.08,100.0,-90
1553,21.325,51.15,0.36,-0.29,0.15,-0.15,11.06,100.0,-90
1554,21.409,52.94,0.43,-0.29,0.10,-0.29,11.75,100.0,-82
1555,21.492,56.28,0.40,-0.20,0.20,-0.29,11.75,100.0,-82
1556,21.576,58.94,0.29,-0.15,0.15,-0.20,11.75,100.0,-82
1557,21.660,58.94,0.34,-0.10,0.15,-0.29,11.06,100.0,-82
1558,21.743,61.05,0.31,-0.20,0.15,-0.20,11.06,100.0,-82
1559,21.827,62.83,0.24,-0.10,0.10,-0.20,11.06,100.0,-82
1560,21.911,64.27,0.40,-0.15,0.15,-0.34,11.75,100.0,-83
1561,21.994,66.67,0.33,-0.10,0.20,-0.24,11.75,100.0,-83
1562,22.078,68.65,0.31,-0.15,0.20,-0.20,11.75,100.0,-83
1563,22.161,68.65,0.33,-0.10,0.20,-0.24,11.06,100.0,-83
1564,22.245,70.19,0.37,-0.10,0.20,-0.29,11.06,100.0,-83
1565,22.329,71.35,0.37,-0.20,0.24,-0.20,11.06,100.0,-83
1566,22.412,72.41,0.39,-0.10,0.15,-0.34,11.75,100.0,-83
1567,22.496,74.06,0.33,-0.10,0.20,-0.24,11.75,100.0,-83
1568,22.580,75.28,0.28,-0.05,0.20,-0.20,11.75,100.0,-83
1569,22.663,75.28,0.42,-0.05,0.24,-0.34,11.08,100.0,-83
1570,22.747,76.28,0.33,-0.05,0.15,-0.29,11.10,100.0,-83
1571,22.831,77.02,0.39,0.00,0.20,-0.34,11.13,100.0,-83
1572,22.931,77.74,0.40,-0.15,0.15,-0.34,11.82,100.0,-81
1573,23.031,78.58,0.34,-0.10,0.15,-0.29,11.82,100.0,-81
1574,23.131,79.19,0.29,-0.10,0.20,-0.20,11.82,100.0,-81
1575,23.232,79.19,0.34,-0.10,0.15,-0.29,11.10,100.0,-81
1576,23.332,79.64,0.33,-0.10,0.20,-0.24,11.08,100.0,-81
1577,23.432,80.00,0.30,-0.10,0.15,-0.24,11.06,100.0,-81
1578,23.516,80.32,0.45,-0.20,0.10,-0.39,11.75,100.0,-82
1579,23.599,80.34,0.36,-0.05,0.20,-0.29,11.75,100.0,-82
1580,23.683,80.34,0.21,-0.05,0.15,-0.15,11.75,100.0,-82
1581,23.766,80.34,0.25,-0.05,0.15,-0.20,11.06,100.0,-82
1582,23.850,80.29,0.28,-0.05,0.20,-0.20,11.06,100.0,-82
1583,23.934,80.21,0.28,-0.05,0.20,-0.20,11.06,100.0,-82
1584,24.017,80.11,0.39,-0.15,0.10,-0.34,11.75,100.0,-76
1585,24.101,79.27,0.31,-0.15,0.20,-0.20,11.75,100.0,-76
1586,24.184,78.63,0.25,-0.05,0.15,-0.20,11.75,100.0,-76
1587,24.268,78.63,1.97,1.86,0.64,0.10,11.06,100.0,-76
1588,24.351,76.05,0.40,-0.20,0.24,-0.24,11.06,100.0,-76
1589,24.435,76.09,0.35,-0.15,0.24,-0.20,11.06,100.0,-76
1590,24.518,76.52,1.71,-0.88,0.00,-1.47,11.75,100.0,-84
1591,24.602,76.27,1.54,-0.78,0.05,-1.32,11.75,100.0,-84
1592,24.685,76.27,1.24,-0.59,0.15,-1.08,11.75,100.0,-84
1593,24.769,76.21,1.10,-0.59,0.05,-0.93,11.08,100.0,-84
1594,24.853,75.60,1.04,-0.74,0.10,-0.74,11.11,100.0,-84
1595,24.936,74.84,1.30,-1.13,0.34,-0.54,11.13,100.0,-84
1596,25.020,73.95,1.05,-0.39,0.69,-0.69,11.85,100.0,-100
1597,25.103,71.60,1.01,-0.10,0.24,-0.98,11.87,100.0,-100
1598,25.187,69.98,0.88,-0.29,0.05,-0.83,11.89,100.0,-100
1599,25.271,69.98,0.69,-0.20,-0.29,-0.59,11.19,100.0,-100
1600,25.354,68.70,0.33,-0.24,-0.10,0.20,11.19,100.0,-100
1601,25.438,67.89,0.48,-0.20,0.20,0.39,11.19,100.0,-100
1602,25.538,67.87,0.41,-0.05,0.10,-0.39,11.87,100.0,-82
1603,25.638,65.14,0.36,-0.05,0.20,-0.29,11.85,100.0,-82
1604,25.739,63.07,0.31,0.00,0.20,-0.24,11.82,100.0,-82
1605,25.839,63.07,1.24,-0.83,-0.39,-0.83,11.11,100.0,-82
1606,25.939,62.55,0.80,-0.44,-0.20,-0.64,11.08,100.0,-82
1607,26.040,61.96,1.15,-0.49,-0.15,-1.03,11.06,100.0,-82
1608,26.123,61.91,1.17,-0.64,-0.29,0.93,11.75,100.0,-73
1609,26.207,59.90,1.26,-0.39,-0.39,1.13,11.75,100.0,-73
1610,26.290,58.22,1.99,-0.49,-0.49,1.86,11.75,100.0,-73
1611,26.374,58.22,1.85,-0.59,-0.54,1.67,11.06,100.0,-73
1612,26.458,58.41,2.47,-0.59,-2.25,0.83,11.06,100.0,-73
1613,26.541,58.42,2.34,-0.74,-2.20,0.29,11.06,100.0,-73
1614,26.625,58.05,3.75,-3.18,-1.91,-0.54,11.75,100.0,-71
1615,26.709,54.99,2.29,-1.81,-1.27,0.59,11.75,100.0,-71
1616,26.792,52.55,1.63,-0.88,-0.10,1.37,11.75,100.0,-71
1617,26.876,52.55,1.28,-1.03,-0.20,0.74,11.06,100.0,-71
1618,26.959,50.97,2.18,-2.16,0.10,0.29,11.06,100.0,-71
1619,27.043,48.75,3.72,-3.68,0.54,-0.24,11.06,100.0,-71
1620,27.127,46.96,1.45,-0.24,0.64,1.27,11.75,100.0,-76
1621,27.210,45.32,1.77,-0.15,0.39,1.72,11.75,100.0,-76
1622,27.294,45.17,1.47,-0.29,-0.44,1.37,11.75,100.0,-76
1623,27.378,45.17,1.46,-0.05,-0.98,1.08,11.08,100.0,-76
1624,27.461,44.95,1.29,-0.15,-0.98,0.83,11.11,100.0,-76
1625,27.545,43.95,1.23,-0.34,-1.03,0.59,11.13,100.0,-76
1626,27.645,42.96,1.24,-1.22,-0.05,-0.20,11.82,100.0,-81
1627,27.745,39.86,0.93,-0.93,0.05,0.00,11.82,100.0,-81
1628,27.846,37.65,1.10,-1.08,0.05,0.20,11.82,100.0,-81
1629,27.946,37.65,1.24,-1.18,0.05,0.39,11.11,100.0,-81
1630,28.046,36.34,1.46,-1.37,0.00,0.49,11.08,100.0,-81
1631,28.147,35.44,6.54,-6.47,0.24,0.93,11.06,100.0,-81
1632,28.230,34.07,1.27,-1.13,0.05,-0.59,11.75,100.0,-76
1633,28.314,31.97,0.76,-0.64,0.15,-0.39,11.75,100.0,-76
1634,28.397,30.25,0.47,-0.15,0.29,-0.34,11.75,100.0,-76
1635,28.481,30.25,1.39,-1.22,0.29,-0.59,11.06,100.0,-76
1636,28.565,28.94,1.19,-1.08,0.15,-0.49,11.06,100.0,-76
1637,28.648,27.97,0.86,-0.74,0.29,-0.34,11.06,100.0,-76
1638,28.732,27.24,1.46,-1.32,-0.20,-0.59,11.75,100.0,-69
1639,28.816,26.35,1.80,-1.76,-0.20,-0.29,11.75,100.0,-69
1640,28.899,25.58,1.94,-1.91,0.00,-0.34,11.75,100.0,-69
1641,28.983,25.58,1.68,-1.67,0.00,-0.24,11.06,100.0,-69
1642,29.066,24.97,1.43,-1.42,0.10,-0.15,11.06,100.0,-69
1643,29.150,24.57,1.19,-1.18,0.15,-0.15,11.06,100.0,-69
1644,29.234,24.23,1.15,-0.98,-0.10,-0.59,11.75,100.0,-74
1645,29.318,23.67,0.92,-0.88,0.00,-0.24,11.75,100.0,-74
1646,29.402,23.13,0.78,-0.74,0.05,-0.24,11.75,100.0,-74
1647,29.485,23.13,0.95,-0.93,0.00,-0.20,11.08,100.0,-74
1648,29.569,22.77,0.99,-0.98,0.05,-0.10,11.10,100.0,-74
1649,29.653,22.42,0.96,-0.93,0.10,-0.20,11.13,100.0,-74
1650,29.753,22.21,1.40,-1.27,0.00,-0.59,11.82,100.0,-69
1651,29.853,21.61,1.23,-1.13,0.05,-0.49,11.82,100.0,-69
1652,29.953,21.19,1.34,-1.22,0.05,-0.54,11.82,100.0,-69
1653,30.053,21.19,1.21,-1.08,0.05,-0.54,11.11,100.0,-69
1654,30.153,20.77,1.18,-1.08,0.00,-0.49,11.08,100.0,-69
1655,30.253,20.50,1.07,-0.98,0.00,-0.44,11.06,100.0,-69
1656,30.337,20.33,1.16,-1.03,0.20,-0.49,11.75,100.0,-64
1657,30.421,19.40,1.08,-0.98,0.29,-0.34,11.76,100.0,-64
1658,30.504,18.87,1.11,-1.03,0.24,-0.34,11.76,100.0,-64
1659,30.588,18.87,1.07,-0.98,0.20,-0.39,11.06,100.0,-64
1660,30.671,18.46,1.14,-1.03,0.20,-0.44,11.06,100.0,-64
1661,30.755,18.19,1.06,-0.98,0.20,-0.34,11.06,100.0,-64
1662,30.839,18.05,0.94,-0.93,0.10,-0.10,11.76,100.0,-71
1663,30.922,17.56,0.95,-0.93,0.15,-0.15,11.75,100.0,-71
1664,31.006,17.21,0.95,-0.93,0.20,0.00,11.75,100.0,-71
1665,31.089,17.21,0.96,-0.93,0.24,-0.05,11.06,100.0,-71
1666,31.173,16.94,0.96,-0.93,0.24,0.00,11.06,100.0,-71
1667,31.257,16.70,0.98,-0.93,0.29,0.00,11.06,100.0,-71
1668,31.340,16.58,1.51,-1.42,0.10,-0.49,11.76,100.0,-68
1669,31.424,15.67,1.34,-1.27,0.24,-0.34,11.76,100.0,-68
1670,31.508,14.95,1.39,-1.32,0.20,-0.39,11.76,100.0,-68
1671,31.591,14.95,1.45,-1.37,0.20,-0.44,11.08,100.0,-68
1672,31.675,14.29,1.33,-1.22,0.20,-0.49,11.11,100.0,-68
1673,31.758,13.90,1.40,-1.32,0.15,-0.44,11.13,100.0,-68
1674,31.842,13.58,1.14,-1.03,0.10,-0.49,11.85,100.0,-64
1675,31.926,13.02,1.04,-0.98,0.20,-0.29,11.87,100.0,-64
1676,32.009,12.54,1.00,-0.88,0.24,-0.39,11.89,100.0,-64
1677,32.093,12.54,1.02,-0.93,0.24,-0.34,11.19,100.0,-64
1678,32.177,12.08,1.01,-0.93,0.24,-0.29,11.19,100.0,-64
1679,32.260,11.80,0.97,-0.93,0.20,-0.20,11.19,100.0,-64
1680,32.361,11.59,1.44,-1.27,0.20,-0.64,11.87,100.0,-67
1681,32.461,10.99,1.21,-1.08,0.24,-0.49,11.85,100.0,-67
1682,32.561,10.52,1.17,-1.03,0.34,-0.44,11.82,100.0,-67
1683,32.661,10.52,1.17,-1.08,0.34,-0.29,11.11,100.0,-67
1684,32.761,10.07,1.13,-1.08,0.29,-0.20,11.08,100.0,-67
1685,32.862,9.84,1.06,-0.98,0.34,-0.20,11.06,100.0,-67
1686,32.945,9.75,1.31,-1.08,0.10,-0.74,11.75,100.0,-66
1687,33.029,9.36,1.11,-0.93,0.15,-0.59,11.75,100.0,-66
1688,33.113,9.10,1.14,-0.98,0.20,-0.54,11.75,100.0,-66
1689,33.196,9.10,1.10,-0.93,0.24,-0.54,11.06,100.0,-66
1690,33.280,8.82,1.14,-0.93,0.29,-0.59,11.06,100.0,-66
1691,33.363,8.45,1.11,-0.93,0.34,-0.49,11.06,100.0,-66
1692,33.447,8.27,1.47,-1.32,0.00,-0.64,11.75,100.0,-66
1693,33.531,7.67,1.39,-1.32,0.00,-0.44,11.75,100.0,-66
1694,33.614,7.67,1.38,-1.32,-0.05,-0.39,11.75,100.0,-66
1695,33.698,7.10,1.36,-1.27,0.00,-0.49,11.06,100.0,-66
1696,33.782,6.74,1.26,-1.22,0.00,-0.29,11.06,100.0,-66
1697,33.865,6.74,1.46,-1.42,0.00,-0.34,11.06,100.0,-66
1698,33.949,6.54,1.35,-1.32,-0.15,-0.24,11.75,100.0,-61
1699,34.032,5.92,1.24,-1.22,0.00,-0.20,11.75,100.0,-61
1700,34.116,5.39,1.25,-1.22,0.00,-0.24,11.75,100.0,-61
1701,34.200,5.39,1.35,-1.32,0.00,-0.24,11.08,100.0,-61
1702,34.283,4.86,1.24,-1.22,0.00,-0.20,11.10,100.0,-61
1703,34.367,4.55,1.20,-1.18,0.05,-0.24,11.13,100.0,-61
1704,34.467,4.26,1.45,-1.32,0.00,-0.59,11.82,100.0,-86
1705,34.568,3.58,1.34,-1.22,0.00,-0.54,11.82,100.0,-86
1706,34.668,3.58,1.25,-1.13,0.05,-0.54,11.82,100.0,-86
1707,34.768,3.08,1.16,-1.03,0.00,-0.54,11.10,100.0,-86
1708,34.868,2.66,1.21,-1.03,0.05,-0.64,11.08,100.0,-86
1709,34.969,2.66,1.16,-1.03,0.05,-0.54,11.06,100.0,-86
1710,35.053,2.35,4.13,1.08,0.74,-3.92,11.75,100.0,-93
1711,35.137,3.00,15.58,4.46,1.96,-14.80,11.75,100.0,-93
1712,35.220,2.19,0.46,0.20,0.29,-0.29,11.75,100.0,-93
1713,35.304,2.19,0.25,0.05,0.20,-0.15,11.06,100.0,-93
1714,35.388,1.40,0.36,-0.05,0.20,-0.29,11.06,100.0,-93
1715,35.472,0.82,0.33,-0.05,0.15,-0.29,11.06,100.0,-93
1716,35.556,0.47,0.77,-0.10,0.34,-0.69,11.75,100.0,-103
1717,35.639,0.13,2.32,-0.24,1.13,-2.01,11.75,100.0,-103
1718,35.722,-0.15,0.99,0.10,0.44,-0.88,11.75,100.0,-103
1719,35.805,-0.15,1.45,0.00,0.69,-1.27,11.06,100.0,-103
1720,35.889,-0.44,1.25,-0.05,0.64,-1.08,11.06,100.0,-103
1721,35.972,-0.62,1.39,0.00,0.74,-1.18,11.06,100.0,-103
1722,36.056,-0.63,1.37,-0.05,0.78,-1.13,11.75,100.0,-95
1723,36.140,-0.66,1.43,-0.05,0.93,-1.08,11.75,100.0,-95
1724,36.223,-0.71,1.42,-0.05,0.98,-1.03,11.75,100.0,-95
1725,36.307,-0.71,1.36,-0.05,0.88,-1.03,11.08,100.0,-95
1726,36.391,-0.83,1.35,-0.05,0.93,-0.98,11.10,100.0,-95
1727,36.475,-0.86,1.49,-0.05,1.03,-1.08,11.13,100.0,-95
1728,36.575,-0.80,1.37,-0.10,0.83,-1.08,11.82,100.0,-92
1729,36.675,-0.83,1.32,-0.05,0.83,-1.03,11.82,100.0,-92
1730,36.775,-0.86,1.32,-0.05,0.93,-0.93,11.82,100.0,-92
1731,36.875,-0.86,1.35,0.00,0.93,-0.98,11.10,100.0,-92
1732,36.975,-0.89,1.39,-0.05,0.93,-1.03,11.08,100.0,-92
1733,37.075,-0.94,1.35,0.00,0.93,-0.98,11.06,100.0,-92
1734,37.159,-0.84,1.38,-0.10,0.78,-1.13,11.75,100.0,-102
1735,37.243,-0.82,1.32,0.00,0.88,-0.98,11.75,100.0,-102
1736,37.326,-0.78,1.36,0.00,0.88,-1.03,11.75,100.0,-102
1737,37.410,-0.78,1.36,0.00,0.88,-1.03,11.06,100.0,-102
1738,37.493,-0.85,1.39,-0.05,0.93,-1.03,11.06,100.0,-102
1739,37.577,-0.89,1.32,0.00,0.93,-0.93,11.06,100.0,-102
1740,37.661,-0.83,1.44,-0.10,0.83,-1.18,11.75,100.0,-91
1741,37.744,-0.92,1.36,-0.05,0.88,-1.03,11.75,100.0,-91
1742,37.828,-0.93,1.36,0.00,0.88,-1.03,11.75,100.0,-91
1743,37.911,-0.93,1.36,-0.10,0.93,-0.98,11.06,100.0,-91
1744,37.995,-0.93,1.39,-0.05,0.93,-1.03,11.06,100.0,-91
1745,38.079,-0.97,1.36,-0.05,0.88,-1.03,11.06,100.0,-91
1746,38.162,-0.90,1.36,-0.20,0.74,-1.13,11.76,100.0,-91
1747,38.246,-0.94,1.36,-0.05,0.83,-1.08,11.76,100.0,-91
1748,38.330,-0.95,1.39,-0.05,0.93,-1.03,11.76,100.0,-91
1749,38.413,-0.95,1.35,-0.05,0.93,-0.98,11.09,100.0,-91
1750,38.497,-0.95,1.39,-0.10,0.93,-1.03,11.11,100.0,-91
1751,38.580,-0.92,1.32,-0.05,0.88,-0.98,11.13,100.0,-91
1752,38.681,-0.87,1.32,-0.05,0.88,-0.98,11.82,100.0,-76
1753,38.781,-0.94,1.29,-0.05,0.98,-0.83,11.82,100.0,-76
1754,38.881,-0.96,1.29,-0.05,1.03,-0.78,11.82,100.0,-76
1755,38.981,-0.96,1.23,0.00,1.08,-0.59,11.11,100.0,-76
1756,39.082,-0.99,1.32,-0.05,1.18,-0.59,11.08,100.0,-76
1757,39.182,-0.95,1.29,-0.05,1.18,-0.54,11.06,100.0,-76
1758,39.266,-0.91,1.38,-1.27,0.05,-0.54,11.75,100.0,-77
1759,39.349,-0.80,1.03,-0.93,0.10,-0.44,11.75,100.0,-77
1760,39.433,-0.78,1.16,-1.08,0.24,-0.34,11.75,100.0,-77
1761,39.516,-0.78,1.47,-1.42,0.24,-0.29,11.06,100.0,-77
1762,39.600,-0.76,1.59,-1.57,0.10,-0.24,11.06,100.0,-77
1763,39.684,-0.75,1.48,-1.42,0.05,-0.39,11.06,100.0,-77
1764,39.767,-0.69,1.15,-1.08,0.10,-0.39,11.75,100.0,-68
1765,39.851,-0.61,1.51,-1.42,0.10,-0.49,11.75,100.0,-68
1766,39.935,-0.55,1.27,-1.18,0.05,-0.49,11.75,100.0,-68
1767,40.018,-0.55,1.42,-1.37,0.15,-0.34,11.06,100.0,-68
1768,40.102,-0.48,1.16,-1.08,0.15,-0.39,11.06,100.0,-68
1769,40.185,-0.40,0.98,-0.88,0.15,-0.39,11.06,100.0,-68
1770,40.269,-0.38,1.32,-1.18,0.10,-0.59,11.75,100.0,-71
1771,40.353,-0.39,1.26,-1.18,0.10,-0.44,11.75,100.0,-71
1772,40.436,-0.36,1.32,-1.22,0.10,-0.49,11.75,100.0,-71
1773,40.520,-0.36,1.28,-1.18,0.10,-0.49,11.06,100.0,-71
1774,40.603,-0.36,1.20,-1.13,0.15,-0.39,11.06,100.0,-71
1775,40.687,-0.33,1.13,-1.03,0.15,-0.44,11.06,100.0,-71
1776,40.771,-0.29,1.26,-1.18,0.05,-0.44,11.75,100.0,-70
1777,40.854,-0.28,1.07,-1.03,0.10,-0.29,11.75,100.0,-70
1778,40.938,-0.26,1.07,-1.03,0.15,-0.24,11.75,100.0,-70
1779,41.022,-0.26,1.03,-0.98,0.15,-0.29,11.08,100.0,-70
1780,41.105,-0.34,1.28,-1.22,0.10,-0.34,11.11,100.0,-70
1781,41.189,-0.35,1.23,-1.18,0.15,-0.34,11.13,100.0,-70
1782,41.289,-0.28,1.03,-0.93,0.10,-0.44,11.82,100.0,-70
1783,41.389,-0.27,0.86,-0.78,0.10,-0.34,11.82,100.0,-70
1784,41.490,-0.33,1.05,-0.93,0.05,-0.49,11.82,100.0,-70
1785,41.590,-0.33,1.12,-0.98,0.00,-0.54,11.11,100.0,-70
1786,41.690,-0.30,1.21,-1.13,0.10,-0.44,11.08,100.0,-70
1787,41.790,-0.29,1.19,-1.08,0.10,-0.49,11.06,100.0,-70
1788,41.874,-0.23,1.17,-1.08,0.05,-0.44,11.75,100.0,-67
1789,41.957,-0.29,1.08,-1.03,0.15,-0.29,11.75,100.0,-67
1790,42.041,-0.33,1.13,-1.08,0.20,-0.29,11.75,100.0,-67
1791,42.124,-0.33,1.07,-1.03,0.15,-0.24,11.06,100.0,-67
1792,42.208,-0.39,1.08,-1.03,0.15,-0.29,11.06,100.0,-67
1793,42.291,-0.32,1.01,-0.98,0.10,-0.24,11.06,100.0,-67
1794,42.375,-0.20,1.20,-1.13,0.15,-0.39,11.76,100.0,-66
1795,42.458,-0.32,1.12,-1.08,0.10,-0.29,11.76,100.0,-66
1796,42.542,-0.34,1.08,-1.03,0.15,-0.29,11.76,100.0,-66
1797,42.625,-0.34,1.09,-1.03,0.20,-0.29,11.06,100.0,-66
1798,42.709,-0.39,1.14,-1.08,0.10,-0.34,11.06,100.0,-66
1799,42.793,-0.36,0.99,-0.93,0.15,-0.29,11.06,100.0,-66
1800,42.876,-0.33,1.24,-1.18,0.10,-0.39,11.76,100.0,-66
1801,42.960,-0.34,1.08,-1.03,0.15,-0.29,11.76,100.0,-66
1802,43.044,-0.36,1.09,-1.03,0.20,-0.29,11.76,100.0,-66
1803,43.127,-0.36,1.08,-1.03,0.15,-0.29,11.09,100.0,-66
1804,43.211,-0.39,1.13,-1.08,0.15,-0.29,11.11,100.0,-66
1805,43.294,-0.32,1.14,-1.08,0.15,-0.34,11.13,100.0,-66
1806,43.395,-0.26,1.00,-0.93,0.10,-0.34,11.82,100.0,-69
1807,43.495,-0.33,1.48,-1.42,0.10,-0.39,11.82,100.0,-69
1808,43.595,-0.34,0.87,-0.83,0.10,-0.24,11.82,100.0,-69
1809,43.695,-0.34,0.77,-0.74,0.15,-0.20,11.11,100.0,-69
1810,43.796,-0.36,1.08,-1.03,0.15,-0.29,11.09,100.0,-69
1811,43.896,-0.38,1.06,-0.98,0.10,-0.39,11.07,100.0,-69
1812,43.979,-0.32,1.29,-1.18,0.05,-0.54,11.76,100.0,-69
1813,44.063,-0.42,1.06,-0.98,0.10,-0.39,11.76,100.0,-69
1814,44.147,-0.41,0.97,-0.83,0.10,-0.49,11.76,100.0,-69
1815,44.230,-0.41,0.95,-0.83,0.10,-0.44,11.07,100.0,-69
1816,44.314,-0.47,0.97,-0.88,0.00,-0.39,11.07,100.0,-69
1817,44.398,-0.45,0.94,-0.83,0.05,-0.44,11.07,100.0,-69
1818,44.481,-0.42,1.16,-0.83,-0.20,-0.78,11.76,100.0,-69
1819,44.565,-0.46,1.27,-0.88,-0.24,-0.88,11.76,100.0,-69
1820,44.648,-0.47,1.31,-0.88,-0.24,-0.93,11.76,100.0,-69
1821,44.732,-0.47,1.29,-0.83,-0.10,-0.98,11.06,100.0,-69
1822,44.816,-0.50,1.28,-0.93,-0.05,-0.88,11.06,100.0,-69
1823,44.899,-0.53,1.08,-0.78,-0.05,-0.74,11.07,100.0,-69
1824,44.983,-0.48,1.43,-1.13,-0.10,-0.88,11.76,100.0,-72
1825,45.066,-0.55,1.14,-0.98,0.05,-0.59,11.76,100.0,-72
1826,45.150,-0.48,1.23,-1.08,0.05,-0.59,11.76,100.0,-72
1827,45.234,-0.48,1.08,-0.83,-0.05,-0.69,11.09,100.0,-72
1828,45.317,-0.50,1.23,-0.98,-0.10,-0.74,11.11,100.0,-72
1829,45.401,-0.45,1.33,-1.03,-0.10,-0.83,11.13,100.0,-72
1830,45.501,-0.35,1.21,-0.83,-0.05,-0.88,11.82,100.0,-75
1831,45.601,-0.31,1.07,-0.74,0.00,-0.78,11.82,100.0,-75
1832,45.702,-0.32,1.08,-0.78,-0.05,-0.74,11.82,100.0,-75
1833,45.802,-0.32,1.04,-0.69,0.00,-0.78,11.11,100.0,-75
1834,45.902,-0.36,1.07,-0.74,0.00,-0.78,11.09,100.0,-75
1835,46.002,-0.36,1.05,-0.69,-0.15,-0.78,11.06,100.0,-75
1836,46.086,-0.32,1.40,-0.88,-0.15,-1.08,11.76,100.0,-73
1837,46.170,-0.35,1.21,-0.83,0.00,-0.88,11.76,100.0,-73
1838,46.254,-0.40,1.04,-0.74,0.05,-0.74,11.76,100.0,-73
1839,46.338,-0.40,1.11,-0.78,0.00,-0.78,11.06,100.0,-73
1840,46.422,-0.34,1.15,-0.74,-0.05,-0.88,11.06,100.0,-73
1841,46.506,-0.38,1.16,-0.69,0.00,-0.93,11.06,100.0,-73
1842,46.589,-0.33,1.37,-0.83,-0.34,-1.03,11.75,100.0,-66
1843,46.672,-0.36,1.20,-0.74,-0.15,-0.93,11.75,100.0,-66
1844,46.756,-0.40,1.30,-0.78,-0.10,-1.03,11.76,100.0,-66
1845,46.839,-0.40,1.18,-0.78,0.00,-0.88,11.06,100.0,-66
1846,46.922,-0.47,1.25,-0.83,0.10,-0.93,11.06,100.0,-66
1847,47.006,-0.42,1.18,-0.83,0.05,-0.83,11.06,100.0,-66
1848,47.089,-0.38,1.27,-1.03,-0.10,-0.74,11.76,100.0,-69
1849,47.173,-0.38,1.11,-0.93,-0.10,-0.59,11.76,100.0,-69
1850,47.257,-0.37,1.26,-0.88,-0.15,-0.88,11.76,100.0,-69
1851,47.340,-0.37,1.33,-0.83,-0.10,-1.03,11.09,100.0,-69
1852,47.424,-0.43,1.27,-0.74,-0.10,-1.03,11.11,100.0,-69
1853,47.507,-0.41,1.31,-0.78,-0.20,-1.03,11.13,100.0,-69
1854,47.608,-0.32,1.26,-1.08,-0.15,-0.64,11.82,100.0,-79
1855,47.708,-0.34,0.97,-0.83,-0.05,-0.49,11.82,100.0,-79
1856,47.808,-0.37,0.88,-0.78,0.00,-0.39,11.82,100.0,-79
1857,47.908,-0.37,1.04,-0.98,0.00,-0.34,11.11,100.0,-79
1858,48.009,-0.39,0.95,-0.88,-0.05,-0.34,11.09,100.0,-79
1859,48.109,-0.29,0.90,-0.78,-0.05,-0.44,11.06,100.0,-79
1860,48.193,-0.24,1.45,-1.22,0.00,-0.78,11.76,100.0,-76
1861,48.276,-0.39,1.32,-1.13,0.00,-0.69,11.76,100.0,-76
1862,48.360,-0.39,1.32,-1.13,0.10,-0.69,11.76,100.0,-76
1863,48.443,-0.38,1.41,-1.13,0.15,-0.83,11.06,100.0,-76
1864,48.527,-0.45,1.38,-1.13,0.15,-0.78,11.06,100.0,-76
1865,48.611,-0.46,1.45,-1.22,0.24,-0.74,11.06,100.0,-76
1866,48.694,-0.49,1.43,-1.13,0.05,-0.88,11.76,100.0,-76
1867,48.778,-0.48,1.34,-1.08,0.15,-0.78,11.76,100.0,-76
1868,48.862,-0.52,1.31,-1.08,0.10,-0.74,11.76,100.0,-76
1869,48.945,-0.52,1.29,-1.03,0.05,-0.78,11.06,100.0,-76
1870,49.029,-0.62,1.27,-1.03,0.15,-0.74,11.06,100.0,-76
1871,49.112,-0.56,1.29,-0.98,0.10,-0.83,11.06,100.0,-76
1872,49.196,-0.55,1.32,-1.03,0.05,-0.83,11.76,100.0,-68
1873,49.280,-0.47,1.14,-0.93,0.15,-0.64,11.76,100.0,-68
1874,49.363,-0.40,1.13,-0.88,0.15,-0.69,11.76,100.0,-68
1875,49.447,-0.40,1.06,-0.88,0.10,-0.59,11.06,100.0,-68
1876,49.530,-0.41,1.12,-0.88,0.10,-0.69,11.06,100.0,-68
1877,49.614,-0.43,1.21,-0.98,0.15,-0.69,11.06,100.0,-68
1878,49.698,-0.29,1.30,-1.13,0.15,-0.64,11.76,100.0,-67
1879,49.781,-0.33,1.14,-0.98,0.20,-0.54,11.76,100.0,-67
1880,49.865,-0.27,1.11,-0.98,0.20,-0.49,11.76,100.0,-67
1881,49.949,-0.27,1.15,-0.93,0.24,-0.64,11.09,100.0,-67
1882,50.032,-0.27,1.11,-0.93,0.15,-0.59,11.11,100.0,-67
1883,50.116,-0.26,1.20,-0.98,0.10,-0.69,11.13,100.0,-67
1884,50.216,-0.19,1.25,-1.03,0.20,-0.69,11.82,100.0,-69
1885,50.316,-0.18,1.10,-0.93,0.24,-0.54,11.82,100.0,-69
1886,50.417,-0.20,1.17,-0.93,0.29,-0.64,11.82,100.0,-69
1887,50.517,-0.20,1.15,-0.93,0.20,-0.64,11.11,100.0,-69
1888,50.617,-0.17,1.11,-0.83,0.24,-0.69,11.09,100.0,-69
1889,50.717,-0.18,1.17,-0.83,0.24,-0.78,11.06,100.0,-69
1890,50.801,-0.06,1.23,-1.03,0.24,-0.64,11.76,100.0,-69
1891,50.885,-0.11,1.07,-0.88,0.29,-0.54,11.76,100.0,-69
1892,50.968,-0.15,1.07,-0.88,0.34,-0.49,11.75,100.0,-69
1893,51.052,-0.15,1.08,-0.83,0.34,-0.59,11.06,100.0,-69
1894,51.135,-0.24,1.09,-0.83,0.39,-0.59,11.06,100.0,-69
1895,51.219,-0.28,1.22,-0.93,0.39,-0.69,11.06,100.0,-69
1896,51.303,-0.23,1.32,-1.13,0.34,-0.59,11.76,100.0,-65
1897,51.386,-0.29,1.17,-1.03,0.34,-0.44,11.76,100.0,-65
1898,51.470,-0.30,1.22,-0.98,0.34,-0.64,11.76,100.0,-65
1899,51.553,-0.30,1.24,-1.08,0.29,-0.54,11.06,100.0,-65
1900,51.637,-0.28,1.23,-1.03,0.20,-0.64,11.06,100.0,-65
1901,51.721,-0.32,1.20,-1.03,0.20,-0.59,11.06,100.0,-65
1902,51.804,-0.30,1.29,-1.18,0.39,-0.34,11.75,100.0,-65
1903,51.888,-0.30,1.20,-1.08,0.39,-0.34,11.75,100.0,-65
1904,51.972,-0.25,1.25,-1.18,0.24,-0.34,11.75,100.0,-65
1905,52.055,-0.25,1.22,-1.13,0.24,-0.39,11.08,100.0,-65
1906,52.139,-0.35,1.19,-1.13,0.20,-0.34,11.11,100.0,-65
1907,52.222,-0.32,1.19,-1.13,0.20,-0.34,11.13,100.0,-65
1908,52.323,-0.23,1.03,-1.03,-0.05,-0.05,11.82,100.0,-66
1909,52.423,-0.24,0.98,-0.98,0.05,-0.05,11.82,100.0,-66
1910,52.523,-0.22,0.93,-0.93,0.05,0.05,11.82,100.0,-66
1911,52.623,-0.22,0.83,-0.83,0.00,0.00,11.11,100.0,-66
1912,52.724,-0.16,0.88,-0.88,-0.05,-0.05,11.08,100.0,-66
1913,52.824,-0.13,0.88,-0.88,0.00,0.00,11.06,100.0,-66
1914,52.907,-0.08,0.76,-0.74,-0.15,0.10,11.76,100.0,-68
1915,52.991,-0.09,0.77,-0.74,-0.15,0.20,11.76,100.0,-68
1916,53.075,-0.06,0.75,-0.69,-0.24,0.20,11.76,100.0,-68
1917,53.158,-0.06,0.79,-0.74,-0.20,0.20,11.06,100.0,-68
1918,53.242,-0.10,0.87,-0.78,-0.29,0.24,11.06,100.0,-68
1919,53.326,-0.14,0.84,-0.78,-0.24,0.20,11.06,100.0,-68
1920,53.409,-0.12,0.91,-0.83,-0.34,0.10,11.75,100.0,-67
1921,53.493,-0.12,0.83,-0.78,-0.24,0.10,11.75,100.0,-67
1922,53.577,-0.16,0.81,-0.78,-0.20,0.05,11.75,100.0,-67
1923,53.660,-0.16,0.85,-0.83,-0.10,0.15,11.06,100.0,-67
1924,53.744,-0.21,0.76,-0.74,-0.15,0.10,11.06,100.0,-67
1925,53.827,-0.16,0.85,-0.83,-0.15,0.10,11.06,100.0,-67
1926,53.911,-0.10,0.81,-0.78,-0.20,0.05,11.75,100.0,-70
1927,53.995,-0.03,0.77,-0.74,-0.20,0.15,11.75,100.0,-70
1928,54.078,-0.03,0.76,-0.74,-0.15,0.15,11.75,100.0,-70
1929,54.162,-0.03,0.77,-0.74,-0.20,0.15,11.08,100.0,-70
1930,54.245,-0.16,0.72,-0.69,-0.20,0.10,11.11,100.0,-70
1931,54.329,-0.07,0.64,-0.59,-0.24,0.10,11.13,100.0,-70
1932,54.429,-0.05,1.13,-1.08,-0.34,-0.05,11.82,100.0,-65
1933,54.529,-0.06,1.04,-0.98,-0.34,0.00,11.82,100.0,-65
1934,54.630,-0.09,0.90,-0.88,-0.20,0.00,11.82,100.0,-65
1935,54.730,-0.09,0.84,-0.83,-0.10,0.00,11.11,100.0,-65
1936,54.830,-0.11,0.85,-0.83,-0.15,0.00,11.09,100.0,-65
1937,54.930,-0.15,0.96,-0.93,-0.24,0.00,11.06,100.0,-65
1938,55.014,-0.13,0.89,-0.88,-0.10,-0.05,11.76,100.0,-60
1939,55.098,-0.14,0.79,-0.78,-0.05,-0.05,11.76,100.0,-60
1940,55.181,-0.12,0.83,-0.83,-0.05,0.00,11.76,100.0,-60
1941,55.265,-0.12,0.88,-0.88,-0.05,0.00,11.07,100.0,-60
1942,55.348,-0.19,0.89,-0.88,-0.10,0.10,11.06,100.0,-60
1943,55.432,-0.25,0.96,-0.93,-0.05,0.24,11.06,100.0,-60
1944,55.516,-0.13,0.85,-0.83,-0.15,-0.05,11.76,100.0,-64
1945,55.599,-0.18,0.80,-0.78,-0.15,0.05,11.76,100.0,-64
1946,55.683,-0.21,0.80,-0.78,-0.15,0.00,11.75,100.0,-64
1947,55.767,-0.21,0.79,-0.78,-0.10,0.00,11.06,100.0,-64
1948,55.850,-0.27,0.74,-0.74,-0.05,0.05,11.06,100.0,-64
1949,55.934,-0.24,0.78,-0.78,0.00,0.00,11.06,100.0,-64
1950,56.018,-0.20,1.03,-1.03,0.00,0.00,11.75,100.0,-64
1951,56.101,-0.17,0.90,-0.88,0.15,0.10,11.75,100.0,-64
1952,56.185,-0.17,0.95,-0.93,0.20,0.05,11.75,100.0,-64
1953,56.268,-0.17,0.92,-0.88,0.24,0.10,11.08,100.0,-64
1954,56.352,-0.10,0.89,-0.88,0.15,0.00,11.11,100.0,-64
1955,56.435,-0.07,0.84,-0.83,0.05,0.05,11.13,100.0,-64
1956,56.519,-0.05,1.26,-1.22,-0.20,0.20,11.85,100.0,-60
1957,56.603,-0.12,1.05,-0.98,-0.15,0.34,11.87,100.0,-60
1958,56.686,-0.12,0.91,-0.88,-0.10,0.20,11.89,100.0,-60
1959,56.770,-0.12,0.93,-0.93,-0.05,0.05,11.19,100.0,-60
1960,56.853,-0.12,0.88,-0.88,-0.05,0.00,11.19,100.0,-60
1961,56.937,-0.16,0.79,-0.78,-0.05,-0.05,11.19,100.0,-60
1962,57.037,-0.11,1.13,-1.08,-0.34,0.00,11.87,100.0,-64
1963,57.138,-0.12,1.06,-1.03,-0.15,0.20,11.85,100.0,-64
1964,57.238,-0.01,0.91,-0.88,-0.10,0.20,11.82,100.0,-64
1965,57.338,-0.01,0.92,-0.88,-0.10,0.24,11.11,100.0,-64
1966,57.438,-0.07,0.90,-0.88,-0.05,0.20,11.08,100.0,-64
1967,57.539,-0.01,0.90,-0.88,-0.10,0.15,11.06,100.0,-64
1968,57.622,0.06,1.18,-1.18,-0.05,0.10,11.76,100.0,-60
1969,57.705,0.06,1.14,-1.13,-0.10,0.15,11.76,100.0,-60
1970,57.789,0.05,1.14,-1.13,-0.10,0.10,11.76,100.0,-60
1971,57.872,0.05,1.10,-1.08,-0.15,0.15,11.06,100.0,-60
1972,57.956,-0.09,1.04,-1.03,-0.10,0.15,11.06,100.0,-60
1973,58.039,-0.03,0.89,-0.88,-0.05,0.10,11.06,100.0,-60
1974,58.123,0.00,1.20,-1.18,-0.24,0.00,11.76,100.0,-57
1975,58.207,-0.01,1.08,-1.08,-0.05,0.00,11.76,100.0,-57
1976,58.290,0.02,1.13,-1.13,-0.05,0.00,11.76,100.0,-57
1977,58.374,0.02,1.08,-1.08,-0.05,0.00,11.06,100.0,-57
1978,58.457,-0.03,1.00,-0.98,-0.10,0.15,11.06,100.0,-57
1979,58.541,0.00,0.95,-0.93,-0.15,0.15,11.06,100.0,-57
1980,58.625,-0.02,1.23,-1.22,-0.05,0.10,11.76,100.0,-56
1981,58.708,-0.05,1.12,-1.08,0.00,0.29,11.76,100.0,-56
1982,58.792,-0.11,1.16,-1.13,0.00,0.29,11.76,100.0,-56
1983,58.875,-0.11,1.22,-1.18,0.00,0.34,11.09,100.0,-56
1984,58.959,-0.12,1.20,-1.18,-0.10,0.20,11.11,100.0,-56
1985,59.043,-0.07,1.19,-1.18,-0.15,0.10,11.13,100.0,-56
1986,59.143,0.03,1.13,-1.13,-0.10,-0.05,11.82,100.0,-54
1987,59.243,0.01,1.09,-1.08,-0.15,0.05,11.82,100.0,-54
1988,59.343,0.04,1.09,-1.08,-0.15,0.05,11.82,100.0,-54
1989,59.444,0.04,1.14,-1.13,-0.15,0.05,11.11,100.0,-54
1990,59.544,-0.02,1.08,-1.08,-0.05,0.00,11.09,100.0,-54
1991,59.644,-0.01,0.98,-0.98,-0.05,-0.05,11.07,100.0,-54
1992,59.728,0.07,1.02,-0.98,-0.20,0.20,11.76,100.0,-53
1993,59.811,0.06,1.07,-1.03,-0.05,0.29,11.76,100.0,-53
1994,59.895,0.00,1.01,-0.98,0.00,0.24,11.76,100.0,-53
1995,59.979,0.00,1.05,-1.03,0.05,0.20,11.07,100.0,-53
1996,60.062,-0.04,1.00,-0.98,0.10,0.20,11.07,100.0,-53
1997,60.146,-0.10,1.11,-1.08,0.05,0.24,11.07,100.0,-53
1998,60.229,-0.07,1.07,-1.03,-0.29,0.00,11.76,100.0,-55
1999,60.313,-0.09,1.05,-1.03,-0.20,0.05,11.76,100.0,-55
2000,60.397,-0.09,0.95,-0.93,-0.20,0.00,11.76,100.0,-55
2001,60.480,-0.17,0.96,-0.93,-0.24,0.05,11.07,100.0,-55
2002,60.564,-0.12,0.96,-0.93,-0.24,-0.05,11.07,100.0,-55
2003,60.647,-0.12,1.13,-1.08,-0.34,-0.05,11.07,100.0,-55
2004,60.731,-0.04,0.83,-0.83,0.00,0.05,11.76,100.0,-50
2005,60.814,-0.11,0.80,-0.78,0.00,0.15,11.76,100.0,-50
2006,60.898,-0.11,0.81,-0.78,-0.05,0.20,11.76,100.0,-50
2007,60.981,-0.15,0.92,-0.88,-0.05,0.24,11.09,100.0,-50
2008,61.065,-0.10,0.87,-0.83,-0.05,0.24,11.11,100.0,-50
2009,61.148,-0.08,0.81,-0.78,-0.05,0.20,11.13,100.0,-50
2010,61.232,0.00,0.81,-0.78,-0.20,0.00,11.85,100.0,-69
2011,61.315,0.02,0.74,-0.74,-0.10,0.00,11.87,100.0,-69
2012,61.399,0.02,0.75,-0.74,-0.15,0.05,11.89,100.0,-69
2013,61.483,0.02,0.85,-0.83,-0.15,0.05,11.20,100.0,-69
2014,61.566,0.06,0.86,-0.83,-0.15,0.15,11.20,100.0,-69
2015,61.650,0.05,0.92,-0.88,-0.15,0.20,11.20,100.0,-69
2016,61.750,0.00,0.89,-0.88,-0.15,0.00,11.87,100.0,-65
2017,61.850,-0.02,0.84,-0.83,-0.10,0.05,11.85,100.0,-65
2018,61.950,-0.02,0.89,-0.88,0.00,0.10,11.83,100.0,-65
2019,62.051,0.00,0.89,-0.88,0.00,0.10,11.11,100.0,-65
2020,62.151,0.00,0.90,-0.88,-0.05,0.20,11.09,100.0,-65
2021,62.251,0.00,0.95,-0.93,-0.05,0.20,11.07,100.0,-65
2022,62.335,0.04,1.11,-1.08,-0.15,0.20,11.76,100.0,-67
2023,62.418,0.14,0.96,-0.88,-0.15,0.34,11.76,100.0,-67
2024,62.502,0.17,0.88,-0.83,0.00,0.29,11.76,100.0,-67
2025,62.586,0.17,0.87,-0.83,0.05,0.24,11.07,100.0,-67
2026,62.669,0.07,0.81,-0.78,0.05,0.20,11.07,100.0,-67
2027,62.753,0.04,0.81,-0.78,0.00,0.20,11.07,100.0,-67
2028,62.836,0.01,1.09,-1.08,-0.05,-0.15,11.76,100.0,-59
2029,62.920,0.07,0.99,-0.98,0.15,0.05,11.76,100.0,-59
2030,63.003,0.09,0.89,-0.88,0.10,0.00,11.76,100.0,-59
2031,63.087,0.09,0.89,-0.88,0.05,0.10,11.09,100.0,-59
2032,63.170,0.15,0.88,-0.88,0.00,0.05,11.11,100.0,-59
2033,63.254,0.09,0.88,-0.88,-0.05,0.00,11.13,100.0,-59
2034,63.338,0.13,1.03,-1.03,0.10,0.00,11.85,100.0,-47
2035,63.421,0.07,1.04,-1.03,0.15,0.05,11.87,100.0,-47
2036,63.505,0.07,1.04,-1.03,0.15,0.05,11.90,100.0,-47
2037,63.589,0.06,1.03,-1.03,0.05,0.10,11.20,100.0,-47
2038,63.673,0.06,1.13,-1.13,0.05,0.05,11.20,100.0,-47
2039,63.756,0.10,1.14,-1.13,-0.05,0.15,11.20,100.0,-47
2040,63.840,0.12,0.89,-0.88,0.05,-0.10,11.90,100.0,-47
2041,63.923,0.13,0.79,-0.78,0.10,0.00,11.90,100.0,-47
2042,64.007,0.11,0.88,-0.88,0.05,0.05,11.90,100.0,-47
2043,64.091,0.11,0.99,-0.98,0.00,0.15,11.20,100.0,-47
2044,64.174,0.02,0.99,-0.98,0.00,0.15,11.20,100.0,-47
2045,64.258,-0.01,0.94,-0.93,0.05,0.10,11.20,100.0,-47
2046,64.358,-0.03,1.03,-1.03,-0.05,-0.05,11.87,100.0,-49
2047,64.458,-0.11,0.93,-0.93,0.00,0.05,11.85,100.0,-49
2048,64.558,-0.15,0.93,-0.93,-0.05,0.05,11.83,100.0,-49
2049,64.658,-0.15,0.99,-0.98,-0.10,0.05,11.11,100.0,-49
2050,64.758,-0.16,1.03,-1.03,0.00,0.05,11.09,100.0,-49
2051,64.858,-0.13,0.94,-0.93,-0.10,0.10,11.07,100.0,-49
2052,64.942,-0.06,1.13,-1.13,-0.05,-0.10,11.76,100.0,-45
2053,65.026,-0.11,0.98,-0.98,-0.05,-0.05,11.76,100.0,-45
2054,65.109,-0.06,0.98,-0.98,0.00,-0.05,11.76,100.0,-45
2055,65.193,-0.06,0.98,-0.98,0.05,-0.05,11.07,100.0,-45
2056,65.276,-0.09,0.98,-0.98,0.00,0.00,11.07,100.0,-45
2057,65.360,-0.11,0.98,-0.98,-0.05,-0.05,11.07,100.0,-45
2058,65.443,-0.02,1.28,-1.27,0.00,-0.15,11.76,100.0,-44
2059,65.527,-0.10,1.13,-1.13,0.00,-0.10,11.76,100.0,-44
2060,65.610,-0.10,1.10,-1.08,0.00,-0.20,11.76,100.0,-44
2061,65.693,-0.19,1.10,-1.08,0.00,-0.20,11.09,100.0,-44
2062,65.776,-0.16,1.16,-1.13,0.00,-0.29,11.11,100.0,-44
2063,65.860,-0.19,1.14,-1.13,0.05,-0.20,11.13,100.0,-44
2064,65.944,-0.23,1.32,-1.13,-0.24,-0.64,11.85,100.0,-47
2065,66.027,-0.29,1.16,-1.03,-0.05,-0.54,11.88,100.0,-47
2066,66.111,-0.35,0.97,-0.88,0.00,-0.39,11.90,100.0,-47
2067,66.195,-0.35,0.82,-0.74,-0.10,-0.34,11.20,100.0,-47
2068,66.279,-0.44,0.83,-0.74,-0.20,-0.34,11.20,100.0,-47
2069,66.363,-0.53,0.93,-0.88,0.05,-0.29,11.20,100.0,-47
2070,66.447,-0.47,0.88,-0.59,-0.44,-0.49,11.90,100.0,-47
2071,66.530,-0.53,1.19,-0.69,-0.74,-0.64,11.90,100.0,-47
2072,66.614,-0.55,0.86,-0.44,-0.44,-0.59,11.90,100.0,-47
2073,66.698,-0.55,1.05,-0.59,-0.59,-0.64,11.20,100.0,-47
2074,66.781,-0.61,0.84,-0.39,-0.39,-0.64,11.20,100.0,-47
2075,66.865,-0.66,0.67,-0.24,-0.39,-0.49,11.20,100.0,-47
2076,66.965,-0.59,0.82,-0.34,-0.74,0.10,11.87,100.0,-45
2077,67.066,-0.69,0.63,-0.29,-0.54,0.15,11.85,100.0,-45
2078,67.166,-0.74,0.42,-0.29,-0.29,0.05,11.83,100.0,-45
2079,67.267,-0.74,0.63,-0.34,-0.44,0.29,11.11,100.0,-45
2080,67.367,-0.76,0.70,-0.29,-0.59,0.24,11.09,100.0,-45
2081,67.468,-0.75,0.64,-0.39,-0.49,0.15,11.07,100.0,-45
2082,67.551,-0.76,0.88,-0.49,0.59,0.44,11.76,100.0,-43
2083,67.634,-0.80,0.86,-0.39,0.59,0.49,11.76,100.0,-43
2084,67.717,-0.85,0.93,-0.34,0.64,0.59,11.76,100.0,-43
2085,67.801,-0.85,0.92,-0.29,0.64,0.59,11.09,100.0,-43
2086,67.884,-0.86,0.90,-0.34,0.59,0.59,11.11,100.0,-43
2087,67.967,-0.84,0.86,-0.29,0.49,0.64,11.13,100.0,-43
2088,68.051,-0.80,0.72,-0.39,0.49,0.34,11.85,100.0,-44
2089,68.135,-0.77,0.86,-0.39,0.59,0.49,11.87,100.0,-44
2090,68.220,-0.75,0.92,-0.29,0.54,0.69,11.89,100.0,-44
2091,68.304,-0.75,0.88,-0.29,0.59,0.59,11.19,100.0,-44
2092,68.388,-0.81,0.80,-0.24,0.54,0.54,11.19,100.0,-44
2093,68.472,-0.77,0.83,-0.24,0.59,0.54,11.19,100.0,-44
2094,68.555,-0.70,0.74,-0.39,0.49,0.39,11.89,100.0,-42
2095,68.638,-0.69,0.89,-0.39,0.59,0.54,11.89,100.0,-42
2096,68.721,-0.71,0.80,-0.24,0.59,0.49,11.89,100.0,-42
2097,68.804,-0.71,0.92,-0.39,0.59,0.59,11.20,100.0,-42
2098,68.887,-0.73,0.92,-0.39,0.64,0.54,11.20,100.0,-42
2099,68.970,-0.71,0.87,-0.24,0.59,0.59,11.20,100.0,-42
2100,69.071,-0.66,0.83,-0.39,0.49,0.54,11.87,100.0,-44
2101,69.171,-0.70,0.86,-0.39,0.54,0.54,11.85,100.0,-44
2102,69.271,-0.77,0.88,-0.29,0.59,0.59,11.83,100.0,-44
2103,69.372,-0.77,0.90,-0.34,0.59,0.59,11.11,100.0,-44
2104,69.472,-0.79,0.82,-0.29,0.54,0.54,11.09,100.0,-44
2105,69.572,-0.76,0.85,-0.29,0.59,0.54,11.07,100.0,-44
2106,69.656,-0.78,0.79,-0.44,0.49,0.44,11.76,100.0,-43
2107,69.739,-0.82,0.80,-0.24,0.59,0.49,11.76,100.0,-43
2108,69.823,-0.90,0.82,-0.20,0.54,0.59,11.76,100.0,-43
2109,69.906,-0.90,0.84,-0.34,0.54,0.54,11.07,100.0,-43
2110,69.990,-0.91,0.84,-0.34,0.54,0.54,11.07,100.0,-43
2111,70.073,-0.80,0.83,-0.24,0.59,0.54,11.07,100.0,-43
2112,70.157,-0.70,0.77,-0.39,0.49,0.44,11.76,100.0,-47
2113,70.241,-0.70,0.87,-0.34,0.54,0.59,11.76,100.0,-47
2114,70.324,-0.64,0.82,-0.29,0.54,0.54,11.76,100.0,-47
2115,70.408,-0.64,0.86,-0.39,0.54,0.54,11.09,100.0,-47
2116,70.491,-0.72,0.85,-0.29,0.54,0.59,11.11,100.0,-47
2117,70.575,-0.69,0.87,-0.34,0.59,0.54,11.13,100.0,-47
2118,70.659,-0.61,0.80,-0.39,0.44,0.54,11.85,100.0,-43
2119,70.742,-0.69,0.84,-0.34,0.54,0.54,11.87,100.0,-43
2120,70.826,-0.78,0.85,-0.29,0.59,0.54,11.90,100.0,-43
2121,70.909,-0.78,0.87,-0.34,0.59,0.54,11.20,100.0,-43
2122,70.993,-0.76,0.85,-0.29,0.59,0.54,11.20,100.0,-43
2123,71.077,-0.80,0.83,-0.24,0.54,0.59,11.20,100.0,-43
2124,71.177,-0.75,0.77,-0.49,0.49,0.34,11.87,100.0,-44
2125,71.277,-0.78,0.81,-0.34,0.49,0.54,11.85,100.0,-44
2126,71.377,-0.73,0.80,-0.24,0.54,0.54,11.83,100.0,-44
2127,71.477,-0.73,0.85,-0.29,0.54,0.59,11.11,100.0,-44
2128,71.578,-0.70,0.86,-0.29,0.64,0.49,11.09,100.0,-44
2129,71.678,-0.66,0.93,-0.34,0.59,0.64,11.07,100.0,-44
2130,71.762,-0.63,0.74,-0.39,0.44,0.44,11.76,100.0,-43
2131,71.846,-0.65,0.87,-0.34,0.54,0.59,11.76,100.0,-43
2132,71.930,-0.62,0.91,-0.24,0.54,0.69,11.76,100.0,-43
2133,72.014,-0.62,0.87,-0.34,0.54,0.59,11.06,100.0,-43
2134,72.099,-0.70,0.89,-0.29,0.54,0.64,11.06,100.0,-43
2135,72.183,-0.68,0.87,-0.24,0.59,0.59,11.06,100.0,-43
2136,72.266,-0.63,0.82,-0.44,0.54,0.44,11.76,100.0,-45
2137,72.349,-0.66,0.87,-0.34,0.59,0.54,11.76,100.0,-45
2138,72.432,-0.64,0.93,-0.34,0.64,0.59,11.76,100.0,-45
2139,72.515,-0.64,0.89,-0.39,0.59,0.54,11.07,100.0,-45
2140,72.598,-0.75,0.85,-0.29,0.54,0.59,11.07,100.0,-45
2141,72.681,-0.70,0.88,-0.29,0.59,0.59,11.07,100.0,-45
2142,72.765,-0.66,0.83,-0.39,0.59,0.44,11.76,100.0,-44
2143,72.849,-0.75,0.84,-0.34,0.59,0.49,11.76,100.0,-44
2144,72.933,-0.78,0.82,-0.29,0.59,0.49,11.76,100.0,-44
2145,73.016,-0.78,0.89,-0.29,0.54,0.64,11.09,100.0,-44
2146,73.100,-0.81,0.90,-0.34,0.54,0.64,11.11,100.0,-44
2147,73.184,-0.74,0.87,-0.34,0.64,0.49,11.13,100.0,-44
2148,73.284,-0.71,0.74,-0.39,0.44,0.44,11.83,100.0,-44
2149,73.384,-0.70,0.82,-0.29,0.54,0.54,11.83,100.0,-44
2150,73.484,-0.75,0.85,-0.29,0.54,0.59,11.83,100.0,-44
2151,73.584,-0.75,0.87,-0.34,0.59,0.54,11.11,100.0,-44
2152,73.684,-0.69,0.92,-0.39,0.59,0.59,11.09,100.0,-44
2153,73.784,-0.69,0.82,-0.29,0.49,0.59,11.07,100.0,-44
2154,73.868,-0.68,0.83,-0.39,0.54,0.49,11.76,100.0,-43
2155,73.952,-0.79,0.82,-0.29,0.54,0.54,11.76,100.0,-43
2156,74.035,-0.81,0.87,-0.34,0.54,0.59,11.76,100.0,-43
2157,74.119,-0.81,0.89,-0.29,0.64,0.54,11.07,100.0,-43
2158,74.203,-0.88,0.80,-0.24,0.59,0.49,11.06,100.0,-43
2159,74.286,-0.81,0.90,-0.34,0.59,0.59,11.06,100.0,-43
2160,74.370,-0.81,0.76,-0.44,0.44,0.44,11.76,100.0,-43
2161,74.454,-0.83,0.87,-0.34,0.54,0.59,11.75,100.0,-43
2162,74.537,-0.80,0.83,-0.24,0.54,0.59,11.75,100.0,-43
2163,74.621,-0.80,0.82,-0.29,0.54,0.54,11.06,100.0,-43
2164,74.705,-0.85,0.93,-0.34,0.59,0.64,11.06,100.0,-43
2165,74.788,-0.84,0.85,-0.29,0.54,0.59,11.06,100.0,-43
2166,74.872,-0.74,0.79,-0.44,0.49,0.44,11.76,100.0,-44
2167,74.955,-0.80,0.89,-0.39,0.59,0.54,11.76,100.0,-44
2168,75.039,-0.78,0.85,-0.29,0.59,0.54,11.76,100.0,-44
2169,75.122,-0.78,0.87,-0.34,0.59,0.54,11.07,100.0,-44
2170,75.206,-0.79,0.85,-0.29,0.59,0.54,11.07,100.0,-44
2171,75.290,-0.71,0.83,-0.24,0.54,0.59,11.07,100.0,-44
2172,75.373,-0.60,0.74,-0.39,0.49,0.39,11.76,100.0,-45
2173,75.457,-0.65,0.88,-0.29,0.59,0.59,11.76,100.0,-45
2174,75.541,-0.67,0.85,-0.29,0.54,0.59,11.76,100.0,-45
2175,75.624,-0.67,0.85,-0.29,0.59,0.54,11.09,100.0,-45
2176,75.708,-0.71,0.88,-0.29,0.59,0.59,11.11,100.0,-45
2177,75.792,-0.70,0.85,-0.29,0.59,0.54,11.13,100.0,-45
2178,75.892,-0.61,0.86,-0.39,0.54,0.54,11.83,100.0,-43
2179,75.992,-0.70,0.87,-0.34,0.54,0.59,11.83,100.0,-43
2180,76.092,-0.72,0.87,-0.34,0.59,0.54,11.83,100.0,-43
2181,76.192,-0.72,0.96,-0.39,0.69,0.54,11.11,100.0,-43
2182,76.292,-0.74,0.87,-0.34,0.59,0.54,11.09,100.0,-43
2183,76.392,-0.77,0.88,-0.29,0.59,0.59,11.07,100.0,-43
2184,76.476,-0.68,0.74,-0.39,0.44,0.44,11.76,100.0,-43
2185,76.560,-0.70,0.86,-0.39,0.59,0.49,11.76,100.0,-43
2186,76.643,-0.65,0.81,-0.34,0.54,0.49,11.76,100.0,-43
2187,76.727,-0.65,0.82,-0.29,0.54,0.54,11.07,100.0,-43
2188,76.811,-0.72,0.80,-0.24,0.54,0.54,11.07,100.0,-43
2189,76.894,-0.67,0.88,-0.29,0.59,0.59,11.07,100.0,-43
2190,76.978,-0.67,0.80,-0.39,0.49,0.49,11.76,100.0,-44
2191,77.061,-0.69,0.87,-0.34,0.54,0.59,11.76,100.0,-44
2192,77.145,-0.71,0.90,-0.34,0.64,0.54,11.76,100.0,-44
2193,77.229,-0.71,0.89,-0.29,0.54,0.64,11.07,100.0,-44
2194,77.312,-0.76,0.88,-0.29,0.59,0.59,11.07,100.0,-44
2195,77.396,-0.76,0.79,-0.29,0.54,0.49,11.07,100.0,-44
2196,77.480,-0.65,0.80,-0.39,0.54,0.44,11.76,100.0,-43
2197,77.563,-0.68,0.81,-0.34,0.54,0.49,11.76,100.0,-43
2198,77.647,-0.73,0.85,-0.29,0.54,0.59,11.76,100.0,-43
2199,77.730,-0.73,0.87,-0.34,0.59,0.54,11.09,100.0,-43
2200,77.814,-0.74,0.85,-0.29,0.59,0.54,11.11,100.0,-43
2201,77.897,-0.87,0.90,-0.34,0.59,0.59,11.13,100.0,-43
2202,77.998,-0.82,0.82,-0.49,0.49,0.44,11.82,100.0,-42
2203,78.098,-0.81,0.89,-0.39,0.54,0.59,11.82,100.0,-42
2204,78.198,-0.82,0.79,-0.29,0.54,0.49,11.83,100.0,-42
2205,78.298,-0.82,0.81,-0.34,0.59,0.44,11.11,100.0,-42
2206,78.398,-0.85,0.81,-0.34,0.54,0.49,11.09,100.0,-42
2207,78.498,-0.79,0.79,-0.29,0.54,0.49,11.07,100.0,-42
2208,78.582,-0.78,0.80,-0.39,0.49,0.49,11.76,100.0,-44
2209,78.665,-0.85,0.84,-0.34,0.54,0.54,11.76,100.0,-44
2210,78.749,-0.87,0.87,-0.34,0.64,0.49,11.76,100.0,-44
2211,78.832,-0.87,0.85,-0.29,0.59,0.54,11.07,100.0,-44
2212,78.916,-0.80,0.92,-0.39,0.59,0.59,11.07,100.0,-44
2213,79.000,-0.77,0.88,-0.29,0.59,0.59,11.07,100.0,-44
2214,79.083,-0.70,0.77,-0.34,0.49,0.49,11.76,100.0,-44
2215,79.166,-0.76,0.82,-0.29,0.54,0.54,11.76,100.0,-44
2216,79.249,-0.77,0.90,-0.34,0.59,0.59,11.76,100.0,-44
2217,79.333,-0.77,0.78,-0.34,0.54,0.44,11.07,100.0,-44
2218,79.416,-0.82,0.92,-0.29,0.59,0.64,11.07,100.0,-44
2219,79.499,-0.79,0.93,-0.34,0.59,0.64,11.07,100.0,-44
2220,79.583,-0.77,0.79,-0.44,0.49,0.44,11.76,100.0,-44
2221,79.666,-0.78,0.86,-0.39,0.54,0.54,11.76,100.0,-44
2222,79.750,-0.80,0.87,-0.34,0.54,0.59,11.76,100.0,-44
2223,79.833,-0.80,0.85,-0.29,0.59,0.54,11.09,100.0,-44
2224,79.917,-0.83,0.90,-0.34,0.59,0.59,11.11,100.0,-44
2225,80.001,-0.76,0.87,-0.34,0.54,0.59,11.13,100.0,-44
2226,80.101,-0.70,0.81,-0.34,0.54,0.49,11.83,100.0,-45
2227,80.201,-0.77,0.79,-0.29,0.54,0.49,11.83,100.0,-45
2228,80.301,-0.82,0.82,-0.29,0.54,0.54,11.83,100.0,-45
2229,80.401,-0.82,0.87,-0.24,0.59,0.59,11.11,100.0,-45
2230,80.501,-0.83,0.83,-0.24,0.54,0.59,11.09,100.0,-45
2231,80.602,-0.72,0.90,-0.34,0.59,0.59,11.07,100.0,-45
2232,80.686,-0.68,0.74,-0.39,0.44,0.44,11.76,100.0,-45
2233,80.770,-0.79,0.75,-0.29,0.49,0.49,11.76,100.0,-45
2234,80.853,-0.76,0.85,-0.29,0.54,0.59,11.76,100.0,-45
2235,80.937,-0.76,0.90,-0.34,0.59,0.59,11.07,100.0,-45
2236,81.021,-0.71,0.88,-0.29,0.59,0.59,11.07,100.0,-45
2237,81.105,-0.71,0.93,-0.34,0.59,0.64,11.07,100.0,-45
2238,81.189,-0.70,0.74,-0.39,0.44,0.44,11.76,100.0,-42
2239,81.272,-0.78,0.84,-0.34,0.54,0.54,11.76,100.0,-42
2240,81.356,-0.76,0.85,-0.29,0.59,0.54,11.76,100.0,-42
2241,81.440,-0.76,0.88,-0.29,0.59,0.59,11.07,100.0,-42
2242,81.523,-0.83,0.82,-0.29,0.54,0.54,11.07,100.0,-42
2243,81.607,-0.75,0.81,-0.34,0.54,0.49,11.07,100.0,-42
2244,81.690,-0.75,0.77,-0.39,0.49,0.44,11.76,100.0,-42
