sid,time,altitude,acceleration,acceleration-X,acceleration-Y,acceleration-Z,SPS,Reliability,RSSI
1770,-0.832,0.00,0.57,-0.34,-0.10,0.44,0.00,100.0,-39
1771,-0.632,0.00,0.57,-0.24,-0.15,0.49,0.00,100.0,-39
1772,-0.432,-0.02,0.70,-0.34,-0.15,0.59,0.00,100.0,-39
1773,-0.232,-0.02,0.70,-0.34,-0.15,0.59,0.00,100.0,-39
1774,-0.032,-0.05,0.65,-0.24,-0.15,0.59,0.00,100.0,-39
1775,0.168,-0.12,0.66,-0.29,-0.10,0.59,0.00,100.0,-39
1776,0.268,-0.06,0.57,-0.39,-0.15,0.39,5.45,100.0,-45
1777,0.368,-0.03,0.57,-0.44,-0.10,0.34,5.00,100.0,-45
1778,0.469,-0.01,0.53,-0.34,-0.10,0.39,4.61,100.0,-45
1779,0.569,-0.01,0.62,-0.44,-0.20,0.39,4.28,100.0,-45
1780,0.669,-0.07,0.61,-0.44,-0.15,0.39,4.00,100.0,-45
1781,0.769,-0.04,0.67,-0.44,-0.24,0.44,3.75,100.0,-45
1782,0.853,0.02,0.71,-0.44,-0.15,0.54,7.12,100.0,-41
1783,0.937,0.05,0.73,-0.39,-0.20,0.59,6.78,100.0,-41
1784,1.020,0.03,0.66,-0.39,-0.20,0.49,6.48,100.0,-41
1785,1.104,0.03,0.75,-0.39,-0.24,0.59,6.20,100.0,-41
1786,1.188,0.05,0.62,-0.34,-0.15,0.49,5.94,100.0,-41
1787,1.271,0.03,0.68,-0.39,-0.15,0.54,5.70,100.0,-41
1788,1.355,0.10,0.71,-0.59,-0.10,0.39,8.23,100.0,-41
1789,1.438,0.13,0.68,-0.54,-0.15,0.39,7.93,100.0,-41
1790,1.522,0.11,0.68,-0.54,-0.15,0.39,7.65,100.0,-41
1791,1.606,0.11,0.66,-0.54,-0.15,0.34,7.38,100.0,-41
1792,1.689,0.11,0.71,-0.54,-0.15,0.44,7.14,100.0,-41
1793,1.773,0.05,0.64,-0.49,-0.15,0.39,6.91,100.0,-41
1794,1.857,0.19,0.72,-0.59,-0.15,0.39,8.93,100.0,-42
1795,1.940,0.15,0.69,-0.54,-0.20,0.39,8.66,100.0,-42
1796,2.024,0.13,0.72,-0.59,-0.15,0.39,8.40,100.0,-42
1797,2.107,0.13,0.71,-0.59,-0.20,0.34,8.16,100.0,-42
1798,2.191,0.20,0.75,-0.59,-0.15,0.44,7.94,100.0,-42
1799,2.275,0.19,0.76,-0.59,-0.20,0.44,7.72,100.0,-42
1800,2.375,0.23,0.76,-0.69,-0.15,0.29,9.35,100.0,-42
1801,2.475,0.18,0.72,-0.59,-0.15,0.39,9.07,100.0,-42
1802,2.575,0.16,0.75,-0.64,-0.05,0.39,8.80,100.0,-42
1803,2.676,0.16,0.79,-0.64,-0.15,0.44,8.55,100.0,-42
1804,2.776,0.12,0.76,-0.59,-0.20,0.44,8.31,100.0,-42
1805,2.876,0.21,0.73,-0.59,-0.20,0.39,8.09,100.0,-42
1806,2.960,0.29,0.74,-0.64,-0.15,0.34,9.49,100.0,-42
1807,3.044,0.33,0.75,-0.64,-0.10,0.39,9.29,100.0,-42
1808,3.127,0.24,0.79,-0.69,-0.20,0.34,9.09,100.0,-42
1809,3.211,0.24,0.74,-0.64,-0.15,0.34,8.90,100.0,-42
1810,3.294,0.26,0.74,-0.64,-0.15,0.34,8.72,100.0,-42
1811,3.378,0.22,0.75,-0.64,-0.20,0.34,8.55,100.0,-42
1812,3.462,0.28,0.81,-0.69,-0.24,0.34,9.78,100.0,-42
1813,3.545,0.24,0.79,-0.69,-0.20,0.34,9.59,100.0,-42
1814,3.629,0.24,0.79,-0.69,-0.20,0.34,9.41,100.0,-42
1815,3.713,0.24,0.76,-0.69,-0.15,0.29,9.24,100.0,-42
1816,3.796,0.19,0.71,-0.64,-0.10,0.29,9.07,100.0,-42
1817,3.880,0.20,0.74,-0.64,-0.15,0.34,8.91,100.0,-42
1818,3.963,0.28,0.78,-0.69,-0.15,0.34,10.01,100.0,-43
1819,4.047,0.23,0.83,-0.69,-0.15,0.44,9.84,100.0,-43
1820,4.131,0.17,0.80,-0.69,-0.10,0.39,9.67,100.0,-43
1821,4.214,0.17,0.80,-0.69,-0.10,0.39,9.51,100.0,-43
1822,4.298,0.10,0.80,-0.69,-0.10,0.39,9.36,100.0,-43
1823,4.382,0.19,0.84,-0.74,-0.10,0.39,9.21,100.0,-43
1824,4.465,0.31,0.80,-0.69,-0.15,0.39,10.19,100.0,-41
1825,4.549,0.35,0.83,-0.74,-0.20,0.34,10.04,100.0,-41
1826,4.632,0.25,0.79,-0.69,-0.20,0.34,9.88,100.0,-41
1827,4.716,0.25,0.76,-0.69,-0.15,0.29,9.73,100.0,-41
1828,4.800,0.20,0.72,-0.64,-0.15,0.29,9.59,100.0,-41
1829,4.883,0.27,0.73,-0.64,-0.20,0.29,9.45,100.0,-41
1830,4.984,0.34,0.83,-0.78,-0.20,0.20,10.32,100.0,-40
1831,5.084,0.35,0.80,-0.74,-0.20,0.24,10.14,100.0,-40
1832,5.184,0.30,0.79,-0.74,-0.20,0.20,9.97,100.0,-40
1833,5.284,0.30,0.77,-0.69,-0.20,0.29,9.81,100.0,-40
1834,5.385,0.19,0.81,-0.69,-0.20,0.39,9.65,100.0,-40
1835,5.485,0.33,0.81,-0.74,-0.15,0.29,9.50,100.0,-40
1836,5.569,0.38,0.81,-0.78,-0.15,0.15,10.31,100.0,-40
1837,5.652,0.47,0.77,-0.74,-0.15,0.20,10.18,100.0,-40
1838,5.736,0.48,0.80,-0.78,-0.10,0.15,10.05,100.0,-40
1839,5.820,0.48,0.75,-0.74,-0.10,0.10,9.92,100.0,-40
1840,5.903,0.39,0.75,-0.74,-0.10,0.10,9.80,100.0,-40
1841,5.987,0.39,0.75,-0.74,-0.10,0.10,9.68,100.0,-40
1842,6.070,0.47,0.87,-0.83,-0.15,0.20,10.43,100.0,-39
1843,6.154,0.40,0.87,-0.83,-0.05,0.24,10.31,100.0,-39
1844,6.238,0.37,0.90,-0.88,-0.05,0.20,10.18,100.0,-39
1845,6.321,0.37,0.85,-0.83,-0.10,0.15,10.07,100.0,-39
1846,6.405,0.28,0.86,-0.83,-0.10,0.20,9.95,100.0,-39
1847,6.489,0.28,0.90,-0.88,-0.10,0.15,9.84,100.0,-39
1848,6.572,0.37,0.94,-0.93,-0.05,0.10,10.53,100.0,-39
1849,6.656,0.35,0.90,-0.88,-0.10,0.15,10.42,100.0,-39
1850,6.739,0.36,0.89,-0.88,-0.10,0.10,10.30,100.0,-39
1851,6.823,0.36,0.90,-0.88,-0.05,0.15,10.19,100.0,-39
1852,6.907,0.40,0.91,-0.88,-0.10,0.20,10.08,100.0,-39
1853,6.990,0.39,0.86,-0.83,-0.05,0.20,9.97,100.0,-39
1854,7.091,0.50,0.82,-0.78,-0.05,0.24,10.60,100.0,-38
1855,7.191,0.49,0.81,-0.78,-0.05,0.20,10.47,100.0,-38
1856,7.291,0.49,0.86,-0.83,-0.05,0.20,10.34,100.0,-38
1857,7.391,0.49,0.87,-0.83,-0.15,0.20,10.21,100.0,-38
1858,7.492,0.45,0.86,-0.83,-0.10,0.20,10.09,100.0,-38
1859,7.592,0.44,0.85,-0.83,-0.05,0.15,9.97,100.0,-38
1860,7.676,0.49,0.86,-0.83,-0.10,0.20,10.58,100.0,-40
1861,7.759,0.46,0.85,-0.83,-0.10,0.15,10.48,100.0,-40
1862,7.843,0.48,0.90,-0.88,-0.05,0.15,10.37,100.0,-40
1863,7.926,0.48,0.90,-0.88,-0.05,0.20,10.28,100.0,-40
1864,8.010,0.50,0.85,-0.83,-0.05,0.15,10.18,100.0,-40
1865,8.094,0.51,0.85,-0.83,-0.10,0.15,10.08,100.0,-40
1866,8.177,0.50,0.91,-0.88,-0.10,0.20,10.66,100.0,-40
1867,8.261,0.47,0.86,-0.83,-0.10,0.20,10.56,100.0,-40
1868,8.344,0.45,0.91,-0.88,-0.15,0.15,10.46,100.0,-40
1869,8.428,0.45,0.91,-0.88,-0.10,0.20,10.37,100.0,-40
1870,8.512,0.39,0.85,-0.83,-0.10,0.15,10.50,100.0,-40
1871,8.595,0.34,0.85,-0.83,-0.10,0.15,10.63,100.0,-40
1872,8.679,0.41,0.86,-0.83,-0.10,0.20,11.45,100.0,-41
1873,8.763,0.35,0.94,-0.88,-0.20,0.24,11.60,100.0,-41
1874,8.846,0.38,0.93,-0.88,-0.15,0.24,11.75,100.0,-41
1875,8.930,0.38,0.96,-0.93,-0.15,0.20,11.08,100.0,-41
1876,9.013,0.36,0.92,-0.88,-0.10,0.24,11.10,100.0,-41
1877,9.097,0.35,0.87,-0.83,-0.15,0.20,11.13,100.0,-41
1878,9.197,0.43,0.90,-0.88,-0.05,0.15,11.82,100.0,-40
1879,9.298,0.36,0.85,-0.83,-0.10,0.15,11.82,100.0,-40
1880,9.398,0.34,0.86,-0.83,-0.10,0.20,11.82,100.0,-40
1881,9.498,0.34,0.96,-0.93,-0.10,0.20,11.10,100.0,-40
1882,9.598,0.27,0.97,-0.93,-0.15,0.24,11.08,100.0,-40
1883,9.699,0.24,0.89,-0.83,-0.20,0.24,11.06,100.0,-40
1884,9.782,0.37,0.99,-0.98,-0.05,0.10,11.75,100.0,-49
1885,9.866,0.40,1.04,-1.03,0.00,0.15,11.75,100.0,-49
1886,9.950,0.46,1.09,-1.08,0.05,0.15,11.75,100.0,-49
1887,10.033,0.46,1.10,-1.08,0.05,0.20,11.06,100.0,-49
1888,10.117,0.45,1.05,-1.03,-0.05,0.20,11.06,100.0,-49
1889,10.201,0.53,1.00,-0.98,-0.10,0.20,11.06,100.0,-49
1890,10.284,0.59,0.98,-0.98,0.00,-0.10,11.75,100.0,-48
1891,10.368,0.63,0.90,-0.88,-0.05,-0.15,11.75,100.0,-48
1892,10.451,0.76,1.00,-0.98,0.05,-0.20,11.75,100.0,-48
1893,10.535,0.76,1.00,-0.98,0.00,-0.20,11.06,100.0,-48
1894,10.619,0.78,0.90,-0.88,0.05,-0.15,11.06,100.0,-48
1895,10.702,0.87,0.95,-0.93,0.15,-0.15,11.06,100.0,-48
1896,10.786,1.01,1.03,-1.03,0.10,0.00,11.75,100.0,-42
1897,10.870,0.93,1.09,-1.08,0.15,0.00,11.75,100.0,-42
1898,10.953,0.99,1.14,-1.13,0.20,0.00,11.75,100.0,-42
1899,11.037,0.99,1.13,-1.13,0.10,-0.05,11.08,100.0,-42
1900,11.121,0.94,1.08,-1.08,0.05,-0.05,11.10,100.0,-42
1901,11.204,0.90,1.13,-1.13,0.00,-0.05,11.13,100.0,-42
1902,11.304,0.97,0.99,-0.98,0.15,-0.05,11.82,100.0,-45
1903,11.405,0.90,0.99,-0.98,0.15,0.05,11.82,100.0,-45
1904,11.505,0.87,1.03,-1.03,0.10,0.05,11.82,100.0,-45
1905,11.605,0.87,1.04,-1.03,0.10,0.10,11.10,100.0,-45
1906,11.706,0.79,1.09,-1.08,0.05,0.15,11.08,100.0,-45
1907,11.806,0.81,1.03,-1.03,0.00,0.10,11.06,100.0,-45
1908,11.889,0.82,1.09,-1.08,0.15,-0.10,11.75,100.0,-43
1909,11.973,0.70,1.04,-1.03,0.15,-0.05,11.75,100.0,-43
1910,12.057,0.62,1.09,-1.08,0.15,0.00,11.75,100.0,-43
1911,12.140,0.62,1.43,-1.42,0.10,0.05,11.06,100.0,-43
1912,12.224,0.56,1.03,-1.03,0.10,0.05,11.06,100.0,-43
1913,12.308,0.51,1.04,-1.03,0.10,0.15,11.06,100.0,-43
1914,12.391,0.62,1.10,-1.08,0.05,-0.20,11.75,100.0,-43
1915,12.475,0.64,1.14,-1.13,0.15,-0.05,11.75,100.0,-43
1916,12.558,0.65,1.18,-1.18,0.05,0.00,11.75,100.0,-43
1917,12.642,0.65,1.23,-1.22,0.10,0.05,11.06,100.0,-43
1918,12.726,0.61,1.33,-1.32,0.00,0.10,11.06,100.0,-43
1919,12.809,0.66,1.27,-1.27,-0.05,0.00,11.06,100.0,-43
1920,12.893,0.69,1.18,-1.18,0.05,-0.10,11.75,100.0,-42
1921,12.976,0.63,1.13,-1.13,0.10,-0.05,11.75,100.0,-42
1922,13.060,0.59,1.14,-1.13,0.15,0.05,11.75,100.0,-42
1923,13.144,0.59,1.07,-1.03,0.29,-0.05,11.06,100.0,-42
1924,13.227,0.55,1.11,-1.08,0.24,0.05,11.06,100.0,-42
1925,13.311,0.53,0.99,-0.98,0.15,0.05,11.06,100.0,-42
1926,13.395,0.59,1.04,-1.03,0.10,-0.15,11.75,100.0,-47
1927,13.478,0.58,0.98,-0.93,0.10,-0.29,11.75,100.0,-47
1928,13.562,0.48,0.92,-0.88,0.20,-0.20,11.75,100.0,-47
1929,13.646,0.48,0.92,-0.88,0.20,-0.15,11.08,100.0,-47
1930,13.729,0.48,0.96,-0.93,0.20,-0.15,11.10,100.0,-47
1931,13.813,0.52,1.15,-1.13,0.20,-0.10,11.13,100.0,-47
1932,13.913,0.64,1.33,-1.32,0.10,-0.10,11.82,100.0,-48
1933,14.013,0.54,1.28,-1.27,0.15,0.00,11.82,100.0,-48
1934,14.114,0.56,1.28,-1.27,0.10,0.05,11.82,100.0,-48
1935,14.214,0.56,1.38,-1.37,0.10,0.10,11.10,100.0,-48
1936,14.314,0.48,1.29,-1.27,0.20,0.05,11.08,100.0,-48
1937,14.414,0.46,1.19,-1.18,0.20,0.00,11.06,100.0,-48
1938,14.498,0.63,0.93,-0.93,0.00,0.00,11.75,100.0,-59
1939,14.582,0.60,0.93,-0.93,0.00,0.05,11.75,100.0,-59
1940,14.665,0.60,0.98,-0.98,0.05,0.05,11.75,100.0,-59
1941,14.749,0.55,1.18,-1.18,0.00,0.05,11.06,100.0,-59
1942,14.833,0.55,1.18,-1.18,0.05,0.05,11.06,100.0,-59
1943,14.916,0.56,1.18,-1.18,0.05,-0.10,11.06,100.0,-59
1944,15.000,0.67,1.36,-1.32,0.05,0.29,11.75,100.0,-56
1945,15.083,0.64,1.34,-1.32,0.00,0.20,11.75,100.0,-56
1946,15.167,0.59,1.28,-1.27,-0.05,0.15,11.75,100.0,-56
1947,15.251,0.59,1.23,-1.22,-0.10,0.10,11.06,100.0,-56
1948,15.334,0.55,1.13,-1.13,-0.05,0.05,11.06,100.0,-56
1949,15.418,0.53,1.18,-1.18,0.00,0.05,11.06,100.0,-56
1950,15.502,0.60,1.10,-1.08,0.10,0.20,11.75,100.0,-54
1951,15.585,0.60,1.10,-1.08,0.10,0.20,11.75,100.0,-54
1952,15.669,0.72,1.18,-1.13,0.10,0.34,11.75,100.0,-54
1953,15.752,0.72,1.16,-1.08,0.20,0.39,11.08,100.0,-54
1954,15.836,0.82,0.93,-0.88,0.15,0.24,11.10,100.0,-54
1955,15.920,0.90,0.87,-0.83,0.15,0.20,11.13,100.0,-54
1956,16.020,1.01,0.98,-0.93,0.29,-0.10,11.82,100.0,-47
1957,16.120,1.05,0.94,-0.88,0.24,-0.20,11.82,100.0,-47
1958,16.221,1.09,1.04,-0.98,0.29,-0.20,11.82,100.0,-47
1959,16.321,1.09,1.05,-1.03,0.15,-0.15,11.10,100.0,-47
1960,16.421,1.19,1.08,-1.08,0.05,-0.05,11.08,100.0,-47
1961,16.521,1.18,1.00,-0.98,0.05,-0.20,11.06,100.0,-47
1962,16.605,1.24,0.94,-0.93,0.15,0.05,11.75,100.0,-44
1963,16.689,1.17,0.98,-0.98,0.10,0.00,11.75,100.0,-44
1964,16.772,1.27,0.93,-0.93,0.05,0.00,11.75,100.0,-44
1965,16.856,1.27,0.98,-0.98,0.05,0.00,11.06,100.0,-44
1966,16.939,1.24,1.03,-1.03,0.05,0.00,11.06,100.0,-44
1967,17.023,1.29,1.08,-1.08,0.10,0.00,11.06,100.0,-44
1968,17.107,1.36,1.12,-1.08,0.24,0.20,11.75,100.0,-51
1969,17.190,1.28,1.11,-1.08,0.24,0.10,11.75,100.0,-51
1970,17.274,1.26,1.10,-1.08,0.20,0.05,11.75,100.0,-51
1971,17.358,1.26,1.11,-1.08,0.24,-0.05,11.06,100.0,-51
1972,17.441,1.26,1.00,-0.98,0.20,-0.05,11.06,100.0,-51
1973,17.525,1.30,1.05,-1.03,0.20,0.05,11.06,100.0,-51
1974,17.608,1.37,1.10,-1.08,0.20,0.05,11.75,100.0,-61
1975,17.692,1.30,1.05,-1.03,0.20,0.00,11.75,100.0,-61
1976,17.776,1.26,0.92,-0.88,0.24,-0.10,11.75,100.0,-61
1977,17.859,1.26,0.94,-0.93,0.10,-0.05,11.08,100.0,-61
1978,17.943,1.32,0.99,-0.98,0.10,-0.05,11.10,100.0,-61
1979,18.027,1.32,1.13,-1.13,0.05,0.00,11.13,100.0,-61
1980,18.110,1.43,1.10,-1.08,0.05,0.20,11.84,100.0,-63
1981,18.194,1.44,0.92,-0.88,0.15,0.20,11.87,100.0,-63
1982,18.277,1.44,0.96,-0.93,0.15,0.20,11.89,100.0,-63
1983,18.361,1.44,0.97,-0.93,0.24,0.15,11.19,100.0,-63
1984,18.445,1.36,1.00,-0.98,0.20,0.00,11.19,100.0,-63
1985,18.528,1.44,1.00,-0.98,0.20,-0.05,11.19,100.0,-63
1986,18.629,1.48,1.03,-1.03,0.10,0.05,11.87,100.0,-63
1987,18.729,1.42,0.91,-0.88,0.10,0.20,11.84,100.0,-63
1988,18.829,1.44,1.00,-0.98,0.10,0.20,11.82,100.0,-63
1989,18.929,1.44,1.05,-1.03,0.00,0.20,11.10,100.0,-63
1990,19.030,1.37,1.15,-1.13,0.10,0.20,11.08,100.0,-63
1991,19.130,1.34,1.10,-1.08,0.10,0.20,11.06,100.0,-63
1992,19.214,1.37,0.80,-0.78,0.15,0.05,11.75,100.0,-67
1993,19.297,1.41,0.86,-0.83,0.20,0.05,11.75,100.0,-67
1994,19.381,1.42,1.00,-0.98,0.15,0.10,11.75,100.0,-67
1995,19.464,1.42,1.04,-1.03,0.10,0.15,11.06,100.0,-67
1996,19.548,1.40,1.04,-1.03,0.10,0.10,11.06,100.0,-67
1997,19.632,1.43,1.04,-1.03,0.10,0.10,11.06,100.0,-67
1998,19.715,1.44,0.94,-0.93,-0.05,-0.10,11.75,100.0,-65
1999,19.799,1.40,0.94,-0.93,-0.10,-0.05,11.75,100.0,-65
2000,19.883,1.35,1.03,-1.03,0.00,0.05,11.75,100.0,-65
2001,19.966,1.35,1.13,-1.13,0.00,0.05,11.08,100.0,-65
2002,20.050,1.22,1.08,-1.08,0.00,0.00,11.10,100.0,-65
2003,20.133,1.25,1.03,-1.03,0.05,0.00,11.13,100.0,-65
2004,20.217,1.33,0.85,-0.83,0.15,-0.05,11.84,100.0,-70
2005,20.301,1.34,0.85,-0.83,0.15,0.00,11.87,100.0,-70
2006,20.384,1.32,0.99,-0.98,0.15,0.05,11.89,100.0,-70
2007,20.468,1.32,1.04,-1.03,0.15,0.10,11.19,100.0,-70
2008,20.552,1.32,1.08,-1.08,0.05,0.05,11.19,100.0,-70
2009,20.635,1.37,1.18,-1.18,0.05,0.00,11.19,100.0,-70
2010,20.735,1.49,0.94,-0.93,-0.05,-0.15,11.87,100.0,-64
2011,20.836,1.48,0.94,-0.93,-0.10,-0.05,11.84,100.0,-64
2012,20.936,1.44,1.09,-1.08,-0.15,0.00,11.82,100.0,-64
2013,21.036,1.44,1.08,-1.08,-0.10,-0.05,11.10,100.0,-64
2014,21.137,1.29,1.04,-1.03,-0.15,0.00,11.08,100.0,-64
2015,21.237,1.33,1.04,-1.03,-0.15,0.00,11.06,100.0,-64
2016,21.320,1.37,0.89,-0.88,-0.05,-0.10,11.75,100.0,-68
2017,21.404,1.34,0.94,-0.93,-0.05,-0.15,11.75,100.0,-68
2018,21.488,1.26,0.99,-0.98,0.05,-0.10,11.75,100.0,-68
2019,21.571,1.26,0.98,-0.98,0.05,-0.05,11.06,100.0,-68
2020,21.655,1.20,0.98,-0.98,0.05,-0.05,11.06,100.0,-68
2021,21.739,1.21,1.04,-1.03,0.15,-0.05,11.06,100.0,-68
2022,21.822,1.29,1.03,-1.03,0.10,-0.05,11.75,100.0,-75
2023,21.906,1.25,1.08,-1.08,0.05,-0.10,11.75,100.0,-75
2024,21.989,1.25,0.99,-0.98,0.10,-0.05,11.75,100.0,-75
2025,22.073,1.25,1.14,-1.13,0.15,-0.05,11.06,100.0,-75
2026,22.157,1.20,1.08,-1.08,0.05,-0.10,11.06,100.0,-75
2027,22.240,1.21,1.08,-1.08,0.00,-0.10,11.06,100.0,-75
2028,22.324,1.26,0.99,-0.98,0.05,-0.15,11.75,100.0,-74
2029,22.408,1.17,1.04,-1.03,0.00,-0.15,11.75,100.0,-74
2030,22.491,1.09,1.08,-1.08,0.00,-0.10,11.75,100.0,-74
2031,22.575,1.09,1.08,-1.08,0.00,-0.10,11.08,100.0,-74
2032,22.659,1.06,1.09,-1.08,0.05,-0.15,11.10,100.0,-74
2033,22.742,1.00,1.14,-1.13,0.05,-0.15,11.13,100.0,-74
2034,22.843,1.00,1.18,-1.18,0.15,0.00,11.82,100.0,-73
2035,22.943,0.91,1.28,-1.27,0.15,-0.05,11.82,100.0,-73
2036,23.043,0.84,1.28,-1.27,0.15,0.00,11.82,100.0,-73
2037,23.143,0.84,1.18,-1.18,0.10,-0.05,11.10,100.0,-73
2038,23.244,0.74,1.18,-1.18,0.10,-0.05,11.08,100.0,-73
2039,23.344,0.76,1.20,-1.18,0.20,-0.15,11.06,100.0,-73
2040,23.428,0.85,1.14,-1.13,0.00,-0.15,11.75,100.0,-74
2041,23.511,0.72,1.08,-1.08,-0.05,-0.10,11.75,100.0,-74
2042,23.595,0.71,1.08,-1.08,0.00,-0.05,11.75,100.0,-74
2043,23.679,0.71,1.13,-1.13,0.00,-0.10,11.06,100.0,-74
2044,23.762,0.63,1.13,-1.13,0.00,0.00,11.06,100.0,-74
2045,23.846,0.68,1.13,-1.13,0.00,0.05,11.06,100.0,-74
2046,23.930,0.74,1.33,-1.32,0.15,-0.05,11.75,100.0,-75
2047,24.013,0.75,1.43,-1.42,0.10,-0.10,11.75,100.0,-75
2048,24.097,0.76,1.38,-1.37,0.00,-0.10,11.75,100.0,-75
2049,24.180,0.76,1.32,-1.32,-0.05,0.00,11.06,100.0,-75
2050,24.264,0.69,1.23,-1.22,-0.05,-0.10,11.06,100.0,-75
2051,24.348,0.75,1.28,-1.27,0.00,-0.15,11.06,100.0,-75
2052,24.431,0.84,1.08,-1.08,-0.05,0.00,11.75,100.0,-71
2053,24.515,0.96,0.98,-0.98,-0.05,-0.05,11.75,100.0,-71
2054,24.599,1.01,0.89,-0.88,0.00,-0.10,11.75,100.0,-71
2055,24.682,1.01,0.89,-0.88,0.05,-0.10,11.08,100.0,-71
2056,24.766,1.02,0.86,-0.83,0.05,-0.20,11.10,100.0,-71
2057,24.850,1.04,0.94,-0.93,0.05,-0.15,11.13,100.0,-71
2058,24.950,1.07,1.09,-1.08,0.15,-0.10,11.82,100.0,-74
2059,25.050,1.07,1.15,-1.13,0.15,-0.15,11.82,100.0,-74
2060,25.150,1.06,1.09,-1.08,0.15,-0.10,11.82,100.0,-74
2061,25.251,1.06,1.08,-1.08,0.10,-0.05,11.10,100.0,-74
2062,25.351,1.08,0.99,-0.98,0.10,-0.05,11.08,100.0,-74
2063,25.451,1.06,1.03,-1.03,0.10,-0.05,11.06,100.0,-74
2064,25.535,1.19,1.18,-1.18,0.05,0.00,11.75,100.0,-70
2065,25.619,1.08,1.08,-1.08,0.10,-0.05,11.75,100.0,-70
2066,25.702,1.11,1.08,-1.08,0.00,-0.05,11.75,100.0,-70
2067,25.786,1.11,0.89,-0.88,0.00,-0.10,11.06,100.0,-70
2068,25.869,1.08,0.93,-0.93,0.00,0.00,11.06,100.0,-70
2069,25.953,1.18,1.08,-1.08,0.05,0.00,11.06,100.0,-70
2070,26.037,1.25,1.08,-1.08,0.05,-0.10,11.75,100.0,-74
2071,26.120,1.27,1.03,-1.03,0.05,-0.10,11.75,100.0,-74
2072,26.204,1.29,1.08,-1.08,0.05,-0.05,11.75,100.0,-74
2073,26.288,1.29,1.03,-1.03,0.00,-0.10,11.06,100.0,-74
2074,26.371,1.22,1.23,-1.22,0.10,-0.05,11.06,100.0,-74
2075,26.455,1.17,1.19,-1.18,0.15,-0.05,11.06,100.0,-74
2076,26.539,1.17,1.08,-1.08,0.05,-0.05,11.75,100.0,-73
2077,26.622,1.15,1.19,-1.18,0.15,-0.05,11.75,100.0,-73
2078,26.706,1.12,1.14,-1.13,0.10,-0.10,11.75,100.0,-73
2079,26.789,1.12,1.09,-1.08,0.10,-0.15,11.06,100.0,-73
2080,26.873,1.09,1.08,-1.08,0.00,-0.05,11.06,100.0,-73
2081,26.957,1.14,1.09,-1.08,0.10,-0.15,11.06,100.0,-73
2082,27.040,1.19,1.10,-1.08,0.15,-0.15,11.75,100.0,-70
2083,27.124,1.14,1.16,-1.13,0.15,-0.24,11.75,100.0,-70
2084,27.208,1.17,1.20,-1.18,0.15,-0.20,11.75,100.0,-70
2085,27.291,1.17,1.15,-1.13,0.05,-0.24,11.08,100.0,-70
2086,27.375,1.15,1.08,-1.08,0.05,-0.10,11.10,100.0,-70
2087,27.459,1.18,1.15,-1.13,0.10,-0.20,11.12,100.0,-70
2088,27.559,1.22,1.03,-1.03,0.05,0.00,11.82,100.0,-77
2089,27.659,1.24,1.13,-1.13,0.05,0.00,11.82,100.0,-77
2090,27.759,1.24,1.13,-1.13,0.00,-0.10,11.82,100.0,-77
2091,27.860,1.24,1.09,-1.08,0.05,-0.15,11.10,100.0,-77
2092,27.960,1.23,1.08,-1.08,0.00,-0.05,11.08,100.0,-77
2093,28.060,1.21,1.14,-1.13,0.00,-0.15,11.06,100.0,-77
2094,28.144,1.18,1.13,-1.13,0.10,0.00,11.75,100.0,-69
2095,28.228,1.16,1.04,-1.03,0.15,0.00,11.75,100.0,-69
2096,28.311,1.10,1.09,-1.08,0.15,-0.05,11.75,100.0,-69
2097,28.395,1.10,1.06,-1.03,0.24,0.00,11.06,100.0,-69
2098,28.478,1.05,1.14,-1.13,0.15,0.00,11.06,100.0,-69
2099,28.562,1.11,1.11,-1.08,0.24,0.00,11.06,100.0,-69
2100,28.646,1.21,1.13,-1.13,0.10,0.00,11.75,100.0,-67
2101,28.729,1.13,1.08,-1.08,0.05,0.00,11.75,100.0,-67
2102,28.813,1.11,1.08,-1.08,0.05,-0.10,11.75,100.0,-67
2103,28.897,1.11,0.99,-0.98,0.10,-0.10,11.06,100.0,-67
2104,28.980,1.14,1.08,-1.08,0.05,-0.05,11.06,100.0,-67
2105,29.064,1.14,1.13,-1.13,0.05,-0.10,11.06,100.0,-67
2106,29.148,1.23,1.13,-1.13,0.05,-0.05,11.75,100.0,-67
2107,29.231,1.21,1.23,-1.22,0.05,0.05,11.75,100.0,-67
2108,29.315,1.15,1.13,-1.13,0.00,-0.05,11.75,100.0,-67
2109,29.399,1.15,1.08,-1.08,0.00,-0.05,11.08,100.0,-67
2110,29.482,1.15,1.03,-1.03,0.00,-0.10,11.10,100.0,-67
2111,29.566,1.15,1.03,-1.03,0.00,0.00,11.12,100.0,-67
2112,29.666,1.20,1.13,-1.13,0.05,-0.05,11.82,100.0,-66
2113,29.766,1.13,1.13,-1.13,0.05,-0.05,11.82,100.0,-66
2114,29.867,1.22,1.14,-1.13,0.05,-0.15,11.82,100.0,-66
2115,29.967,1.22,1.13,-1.13,0.05,-0.05,11.10,100.0,-66
2116,30.067,1.16,1.13,-1.13,0.05,0.00,11.08,100.0,-66
2117,30.167,1.16,1.08,-1.08,0.05,-0.05,11.06,100.0,-66
2118,30.251,1.19,1.14,-1.13,0.15,0.00,11.75,100.0,-64
2119,30.335,1.19,1.14,-1.13,0.15,0.00,11.75,100.0,-64
2120,30.418,1.14,1.09,-1.08,0.15,-0.05,11.75,100.0,-64
2121,30.502,1.14,1.03,-1.03,0.05,-0.05,11.06,100.0,-64
2122,30.586,1.16,1.08,-1.08,0.05,0.00,11.06,100.0,-64
2123,30.669,1.21,1.19,-1.18,0.10,-0.15,11.06,100.0,-64
2124,30.753,1.26,1.13,-1.13,-0.05,0.05,11.75,100.0,-65
2125,30.837,1.30,1.13,-1.13,-0.05,0.00,11.75,100.0,-65
2126,30.920,1.29,1.14,-1.13,-0.05,-0.15,11.75,100.0,-65
2127,31.004,1.29,1.13,-1.13,0.00,-0.10,11.06,100.0,-65
2128,31.087,1.25,1.13,-1.13,0.05,-0.05,11.06,100.0,-65
2129,31.171,1.25,1.03,-1.03,0.05,-0.10,11.06,100.0,-65
2130,31.255,1.28,1.03,-1.03,0.05,0.00,11.75,100.0,-65
2131,31.338,1.26,0.93,-0.93,0.05,0.05,11.75,100.0,-65
2132,31.422,1.27,1.03,-1.03,0.05,-0.05,11.75,100.0,-65
2133,31.506,1.27,1.04,-1.03,0.10,-0.10,11.08,100.0,-65
2134,31.589,1.25,1.13,-1.13,0.10,0.00,11.10,100.0,-65
2135,31.673,1.20,1.08,-1.08,0.05,-0.10,11.12,100.0,-65
2136,31.757,1.30,1.14,-1.13,0.15,-0.05,11.84,100.0,-64
2137,31.840,1.32,1.04,-1.03,0.10,-0.10,11.87,100.0,-64
2138,31.924,1.30,1.09,-1.08,0.15,0.00,11.89,100.0,-64
2139,32.008,1.30,1.08,-1.08,0.10,0.05,11.19,100.0,-64
2140,32.091,1.26,1.09,-1.08,0.10,0.10,11.19,100.0,-64
2141,32.175,1.23,1.13,-1.13,0.10,0.05,11.19,100.0,-64
2142,32.275,1.28,1.25,-1.22,0.20,-0.15,11.87,100.0,-64
2143,32.375,1.33,1.20,-1.18,0.15,-0.20,11.84,100.0,-64
2144,32.476,1.25,1.18,-1.13,0.10,-0.34,11.82,100.0,-64
2145,32.576,1.25,1.15,-1.08,0.05,-0.39,11.10,100.0,-64
2146,32.676,1.23,1.24,-1.22,0.05,-0.20,11.08,100.0,-64
2147,32.776,1.17,1.23,-1.22,0.05,-0.15,11.06,100.0,-64
2148,32.860,1.21,1.24,-1.22,0.05,-0.20,11.75,100.0,-63
2149,32.944,1.21,1.18,-1.18,0.00,-0.15,11.75,100.0,-63
2150,33.027,1.22,1.24,-1.22,0.00,-0.20,11.75,100.0,-63
2151,33.111,1.22,1.23,-1.22,0.00,-0.15,11.06,100.0,-63
2152,33.195,1.16,1.23,-1.18,0.05,-0.34,11.06,100.0,-63
2153,33.278,1.10,1.18,-1.13,0.05,-0.34,11.06,100.0,-63
2154,33.362,1.16,1.29,-1.27,0.20,-0.05,11.75,100.0,-61
2155,33.446,1.16,1.14,-1.13,0.15,0.00,11.75,100.0,-61
2156,33.529,1.12,1.13,-1.13,0.10,0.00,11.75,100.0,-61
2157,33.613,1.12,1.18,-1.18,0.10,-0.10,11.08,100.0,-61
2158,33.696,1.04,1.09,-1.08,0.15,-0.05,11.10,100.0,-61
2159,33.780,1.08,1.19,-1.18,0.15,-0.05,11.12,100.0,-61
2160,33.864,1.18,1.18,-1.18,0.10,0.05,11.84,100.0,-60
2161,33.947,1.15,1.08,-1.08,0.10,0.00,11.87,100.0,-60
2162,34.031,1.11,1.08,-1.08,0.05,0.00,11.89,100.0,-60
2163,34.115,1.11,1.08,-1.08,0.05,-0.05,11.19,100.0,-60
2164,34.198,1.11,1.08,-1.08,0.05,-0.05,11.19,100.0,-60
2165,34.282,1.13,0.99,-0.98,0.10,0.10,11.19,100.0,-60
2166,34.382,1.14,1.20,-1.18,0.20,-0.10,11.87,100.0,-59
2167,34.483,1.11,1.19,-1.18,0.05,-0.15,11.84,100.0,-59
2168,34.583,1.04,1.08,-1.08,0.05,-0.10,11.82,100.0,-59
2169,34.683,1.04,0.94,-0.93,0.10,0.00,11.10,100.0,-59
2170,34.783,1.05,1.00,-0.98,0.10,0.15,11.08,100.0,-59
2171,34.884,1.11,1.04,-1.03,0.15,0.10,11.06,100.0,-59
2172,34.967,1.16,1.14,-1.13,0.10,-0.10,11.75,100.0,-59
2173,35.051,1.13,1.14,-1.13,0.15,-0.05,11.75,100.0,-59
2174,35.135,1.07,1.13,-1.13,0.10,0.00,11.75,100.0,-59
2175,35.218,1.07,1.09,-1.08,0.15,0.05,11.06,100.0,-59
2176,35.302,1.03,1.06,-1.03,0.24,0.00,11.06,100.0,-59
2177,35.385,1.02,1.14,-1.13,0.15,0.00,11.06,100.0,-59
2178,35.469,1.09,1.10,-1.03,0.24,-0.29,11.75,100.0,-61
2179,35.553,1.10,1.27,-1.18,0.39,-0.29,11.75,100.0,-61
2180,35.636,1.09,1.15,-1.08,0.34,-0.20,11.75,100.0,-61
2181,35.720,1.09,1.17,-1.13,0.24,-0.20,11.06,100.0,-61
2182,35.804,1.01,1.18,-1.13,0.24,-0.24,11.06,100.0,-61
2183,35.887,1.05,1.17,-1.08,0.10,-0.44,11.06,100.0,-61
2184,35.971,1.18,1.09,-1.08,0.15,-0.05,11.75,100.0,-60
2185,36.055,1.15,1.09,-1.08,0.10,-0.10,11.75,100.0,-60
2186,36.138,1.12,1.15,-1.13,0.15,-0.15,11.75,100.0,-60
2187,36.222,1.12,1.14,-1.13,0.15,-0.10,11.08,100.0,-60
2188,36.306,1.09,1.06,-1.03,0.24,-0.10,11.10,100.0,-60
2189,36.389,1.18,1.01,-0.98,0.24,0.00,11.12,100.0,-60
2190,36.490,1.15,1.10,-1.08,0.20,-0.05,11.82,100.0,-61
2191,36.590,1.17,1.13,-1.13,0.10,0.05,11.82,100.0,-61
2192,36.690,1.14,1.08,-1.08,0.05,-0.05,11.82,100.0,-61
2193,36.790,1.14,1.04,-1.03,0.10,-0.10,11.10,100.0,-61
2194,36.891,1.04,0.95,-0.93,0.15,-0.15,11.08,100.0,-61
2195,36.991,1.14,0.98,-0.98,0.10,0.00,11.06,100.0,-61
2196,37.075,1.19,1.15,-1.08,0.20,-0.34,11.75,100.0,-71
2197,37.158,1.10,1.11,-1.08,0.15,-0.24,11.75,100.0,-71
2198,37.242,1.04,1.07,-1.03,0.15,-0.24,11.75,100.0,-71
2199,37.326,1.04,1.04,-1.03,0.05,-0.15,11.06,100.0,-71
2200,37.409,1.02,1.30,-1.27,0.15,-0.20,11.06,100.0,-71
2201,37.493,1.00,1.16,-1.13,0.24,-0.15,11.06,100.0,-71
2202,37.576,1.03,1.19,-1.18,0.15,-0.10,11.75,100.0,-75
2203,37.660,0.98,1.19,-1.18,0.15,-0.10,11.75,100.0,-75
2204,37.743,0.96,1.30,-1.27,0.15,-0.20,11.75,100.0,-75
2205,37.827,0.96,1.16,-1.13,0.15,-0.24,11.06,100.0,-75
2206,37.910,0.89,1.14,-1.13,0.10,-0.15,11.06,100.0,-75
2207,37.994,0.82,1.15,-1.13,0.10,-0.20,11.06,100.0,-75
2214,38.177,0.75,1.17,-1.13,0.10,-0.29,11.62,94.5,-68
2215,38.361,0.68,1.17,-1.13,0.20,-0.24,11.49,94.5,-68
2216,38.544,0.69,1.20,-1.18,0.15,-0.20,11.36,94.5,-68
2217,38.728,0.69,1.31,-1.18,0.20,-0.54,10.59,94.5,-68
2218,38.911,0.69,1.26,-1.22,0.20,-0.20,10.50,94.5,-68
2219,39.095,0.60,1.21,-1.18,0.15,-0.24,10.40,94.5,-68
2220,39.178,0.65,1.14,-1.13,0.15,-0.10,11.07,94.8,-72
2221,39.262,0.62,1.10,-1.08,0.15,-0.15,11.09,94.8,-72
2222,39.346,0.60,1.13,-1.08,0.29,-0.15,11.11,94.8,-72
2223,39.429,0.60,1.10,-1.03,0.29,-0.24,10.46,94.8,-72
2224,39.513,0.53,1.12,-1.08,0.24,-0.20,10.46,94.8,-72
2225,39.596,0.59,1.08,-1.03,0.24,-0.20,10.46,94.8,-72
2226,39.680,0.63,1.15,-1.13,0.15,-0.20,11.11,95.1,-73
2227,39.764,0.57,1.16,-1.13,0.15,-0.24,11.11,95.1,-73
2228,39.847,0.50,1.16,-1.13,0.10,-0.24,11.11,95.1,-73
2229,39.931,0.50,1.22,-1.18,0.15,-0.29,10.46,95.1,-73
2230,40.015,0.48,1.15,-1.13,0.10,-0.20,10.46,95.1,-73
2231,40.098,0.44,1.14,-1.13,0.10,-0.15,10.46,95.1,-73
2232,40.182,0.49,1.10,-1.08,0.20,-0.05,11.11,95.4,-69
2233,40.265,0.51,1.14,-1.13,0.20,-0.05,11.11,95.4,-69
2234,40.349,0.52,1.04,-1.03,0.15,-0.10,11.11,95.4,-69
2235,40.432,0.52,1.10,-1.08,0.15,-0.15,10.46,95.4,-69
2236,40.516,0.49,1.15,-1.13,0.20,-0.10,10.46,95.4,-69
2237,40.599,0.51,1.14,-1.13,0.20,-0.05,10.46,95.4,-69
2238,40.699,0.62,1.14,-1.13,0.15,-0.05,11.09,95.7,-71
2239,40.800,0.61,1.14,-1.13,0.15,-0.05,11.07,95.7,-71
2240,40.900,0.64,1.14,-1.13,0.15,-0.10,11.05,95.7,-71
2241,41.000,0.64,1.19,-1.18,0.15,-0.10,10.39,95.7,-71
2242,41.101,0.59,1.04,-1.03,0.10,-0.10,10.37,95.7,-71
2243,41.201,0.63,1.14,-1.13,0.15,-0.10,10.35,95.7,-71
2244,41.285,0.68,1.19,-1.18,0.15,-0.05,10.99,95.9,-72
2245,41.368,0.61,1.14,-1.13,0.15,-0.10,10.99,95.9,-72
2246,41.452,0.57,1.09,-1.08,0.15,-0.10,10.99,95.9,-72
2247,41.535,0.57,1.09,-1.08,0.15,-0.10,10.37,95.9,-72
2248,41.619,0.48,1.14,-1.13,0.20,-0.05,10.39,95.9,-72
2249,41.703,0.51,1.11,-1.08,0.15,-0.20,10.40,95.9,-72
2250,41.786,0.56,1.14,-1.13,0.15,-0.05,11.07,96.2,-72
2251,41.870,0.49,1.14,-1.13,0.15,-0.10,11.09,96.2,-72
2252,41.954,0.52,1.14,-1.13,0.15,-0.10,11.11,96.2,-72
2253,42.037,0.52,1.09,-1.08,0.15,-0.05,10.46,96.2,-72
2254,42.121,0.50,1.14,-1.13,0.15,-0.05,10.46,96.2,-72
2255,42.205,0.54,1.09,-1.08,0.10,-0.10,10.46,96.2,-72
2256,42.288,0.57,1.07,-1.03,0.24,-0.15,11.11,96.4,-69
2257,42.372,0.54,1.10,-1.08,0.20,-0.10,11.11,96.4,-69
2258,42.455,0.63,1.17,-1.13,0.29,-0.05,11.11,96.4,-69
2259,42.539,0.63,1.14,-1.13,0.20,-0.05,10.46,96.4,-69
2260,42.623,0.53,1.10,-1.08,0.20,-0.10,10.46,96.4,-69
2261,42.706,0.45,1.09,-1.08,0.15,-0.05,10.46,96.4,-69
2262,42.790,0.55,1.21,-1.18,0.20,-0.20,11.11,96.6,-69
2263,42.874,0.54,1.15,-1.13,0.15,-0.20,11.11,96.6,-69
2264,42.957,0.50,1.09,-1.08,0.10,-0.10,11.11,96.6,-69
2265,43.041,0.50,1.10,-1.08,0.20,-0.10,10.46,96.6,-69
2266,43.125,0.44,1.16,-1.13,0.24,-0.15,10.46,96.6,-69
2267,43.208,0.47,1.16,-1.13,0.24,-0.15,10.46,96.6,-69
2268,43.308,0.54,1.17,-1.13,0.29,-0.05,11.09,96.8,-70
2269,43.409,0.44,1.17,-1.13,0.29,-0.10,11.07,96.8,-70
2270,43.509,0.44,1.20,-1.18,0.24,-0.10,11.05,96.8,-70
2271,43.609,0.44,1.16,-1.13,0.24,-0.10,10.40,96.8,-70
2272,43.710,0.44,1.17,-1.13,0.29,-0.15,10.40,96.8,-70
2273,43.810,0.42,1.08,-1.03,0.29,-0.15,10.40,96.8,-70
2274,43.894,0.50,1.15,-1.13,0.20,-0.15,11.07,97.0,-71
2275,43.977,0.41,1.10,-1.08,0.20,-0.05,11.09,97.0,-71
2276,44.061,0.39,1.15,-1.13,0.24,-0.05,11.11,97.0,-71
2277,44.144,0.39,1.15,-1.13,0.20,-0.15,10.46,97.0,-71
2278,44.228,0.39,1.05,-1.03,0.20,-0.10,10.46,97.0,-71
2279,44.312,0.37,1.11,-1.08,0.24,-0.15,10.46,97.0,-71
2280,44.395,0.44,1.20,-1.18,0.20,-0.15,11.11,97.2,-65
2281,44.479,0.48,1.11,-1.08,0.15,-0.20,11.11,97.2,-65
2282,44.563,0.51,1.15,-1.13,0.15,-0.20,11.11,97.2,-65
2283,44.646,0.51,1.16,-1.13,0.20,-0.20,10.46,97.2,-65
2284,44.730,0.42,1.14,-1.13,0.10,-0.10,10.46,97.2,-65
2285,44.813,0.47,1.19,-1.18,0.15,-0.15,10.46,97.2,-65
2286,44.897,0.55,1.17,-1.13,0.20,-0.24,11.11,97.3,-64
2287,44.981,0.49,1.16,-1.13,0.20,-0.20,11.11,97.3,-64
2288,45.064,0.45,1.16,-1.13,0.20,-0.20,11.11,97.3,-64
2289,45.148,0.45,1.11,-1.08,0.15,-0.20,10.46,97.3,-64
2290,45.232,0.40,1.17,-1.13,0.20,-0.24,10.46,97.3,-64
2291,45.315,0.40,1.21,-1.18,0.15,-0.24,10.46,97.3,-64
2292,45.416,0.39,1.21,-1.18,0.20,-0.20,11.09,97.5,-65
2293,45.516,0.47,1.17,-1.13,0.20,-0.24,11.07,97.5,-65
2294,45.616,0.49,1.18,-1.13,0.24,-0.24,11.05,97.5,-65
2295,45.716,0.49,1.18,-1.13,0.29,-0.20,10.40,97.5,-65
2296,45.817,0.39,1.16,-1.13,0.20,-0.20,10.40,97.5,-65
2297,45.917,0.34,1.16,-1.13,0.20,-0.20,10.40,97.5,-65
2298,46.001,0.41,1.15,-1.13,0.20,-0.15,11.07,97.6,-70
2299,46.084,0.48,1.20,-1.18,0.15,-0.20,11.09,97.6,-70
2300,46.168,0.51,1.14,-1.13,0.15,-0.10,11.11,97.6,-70
2301,46.251,0.51,1.16,-1.13,0.20,-0.20,10.46,97.6,-70
2302,46.335,0.48,1.10,-1.08,0.15,-0.15,10.46,97.6,-70
2303,46.419,0.52,1.17,-1.13,0.24,-0.20,10.46,97.6,-70
2304,46.502,0.58,1.16,-1.13,0.20,-0.20,11.11,97.8,-71
2305,46.586,0.56,1.15,-1.13,0.20,-0.15,11.11,97.8,-71
2306,46.670,0.46,1.21,-1.18,0.20,-0.20,11.11,97.8,-71
2307,46.753,0.46,1.16,-1.13,0.20,-0.20,10.46,97.8,-71
2308,46.837,0.45,1.15,-1.13,0.20,-0.15,10.46,97.8,-71
2309,46.921,0.49,1.15,-1.13,0.20,-0.15,10.46,97.8,-71
2310,47.004,0.51,1.17,-1.13,0.24,-0.20,11.11,97.9,-70
2311,47.088,0.44,1.21,-1.18,0.20,-0.20,11.11,97.9,-70
2312,47.171,0.49,1.15,-1.13,0.20,-0.15,11.11,97.9,-70
2313,47.255,0.49,1.15,-1.13,0.20,-0.15,10.58,97.9,-70
2314,47.339,0.46,1.15,-1.13,0.20,-0.15,10.69,97.9,-70
2315,47.422,0.45,1.22,-1.18,0.24,-0.20,10.81,97.9,-70
2316,47.523,0.46,1.14,-1.13,0.15,-0.10,11.60,98.0,-73
2317,47.623,0.48,1.16,-1.13,0.20,-0.20,11.71,98.0,-73
2318,47.723,0.44,1.10,-1.08,0.15,-0.15,11.82,98.0,-73
2319,47.823,0.44,1.22,-1.18,0.20,-0.24,11.11,98.0,-73
2320,47.923,0.45,1.18,-1.13,0.20,-0.29,11.08,98.0,-73
2321,48.023,0.46,1.16,-1.13,0.20,-0.20,11.06,98.0,-73
2322,48.107,0.46,1.16,-1.13,0.15,-0.24,11.75,98.1,-69
2323,48.190,0.45,1.16,-1.13,0.15,-0.24,11.75,98.1,-69
2324,48.274,0.47,1.21,-1.18,0.20,-0.20,11.75,98.1,-69
2325,48.358,0.47,1.17,-1.13,0.20,-0.24,11.06,98.1,-69
2326,48.441,0.40,1.11,-1.08,0.15,-0.24,11.06,98.1,-69
2327,48.525,0.33,1.25,-1.22,0.20,-0.15,11.06,98.1,-69
2328,48.609,0.39,1.21,-1.18,0.20,-0.20,11.75,98.2,-67
2329,48.692,0.35,1.17,-1.13,0.24,-0.20,11.75,98.2,-67
2330,48.776,0.41,1.15,-1.13,0.15,-0.15,11.75,98.2,-67
2331,48.859,0.41,1.21,-1.18,0.15,-0.24,11.06,98.2,-67
2332,48.943,0.36,1.21,-1.18,0.20,-0.20,11.06,98.2,-67
2333,49.027,0.39,1.15,-1.13,0.20,-0.15,11.06,98.2,-67
2334,49.110,0.45,1.21,-1.18,0.20,-0.20,11.75,98.4,-65
2335,49.194,0.36,1.14,-1.13,0.15,-0.10,11.75,98.4,-65
2336,49.278,0.42,1.16,-1.13,0.20,-0.20,11.75,98.4,-65
2337,49.361,0.42,1.15,-1.13,0.20,-0.15,11.08,98.4,-65
2338,49.445,0.42,1.07,-1.03,0.20,-0.20,11.10,98.4,-65
2339,49.529,0.51,1.16,-1.13,0.20,-0.20,11.13,98.4,-65
2340,49.629,0.54,1.20,-1.18,0.20,-0.15,11.82,98.4,-70
2341,49.729,0.53,1.25,-1.22,0.20,-0.15,11.82,98.4,-70
2342,49.829,0.50,1.21,-1.18,0.24,-0.15,11.82,98.4,-70
2343,49.930,0.50,1.19,-1.13,0.24,-0.29,11.10,98.4,-70
2344,50.030,0.45,1.10,-1.08,0.15,-0.15,11.08,98.4,-70
2345,50.130,0.52,1.11,-1.08,0.20,-0.20,11.06,98.4,-70
2346,50.214,0.57,1.18,-1.13,0.20,-0.29,11.75,98.5,-69
2347,50.298,0.52,1.28,-1.22,0.15,-0.34,11.75,98.5,-69
2348,50.381,0.49,1.16,-1.13,0.15,-0.24,11.75,98.5,-69
2349,50.465,0.49,1.22,-1.18,0.20,-0.24,11.06,98.5,-69
2350,50.549,0.40,1.11,-1.08,0.15,-0.24,11.06,98.5,-69
2351,50.632,0.40,1.16,-1.13,0.24,-0.15,11.06,98.5,-69
2352,50.716,0.45,1.23,-1.18,0.20,-0.29,11.75,98.6,-69
2353,50.799,0.43,1.17,-1.13,0.20,-0.24,11.75,98.6,-69
2354,50.883,0.50,1.20,-1.18,0.15,-0.20,11.75,98.6,-69
2355,50.967,0.50,1.10,-1.08,0.15,-0.15,11.06,98.6,-69
2356,51.050,0.42,1.16,-1.13,0.20,-0.20,11.06,98.6,-69
2357,51.134,0.49,1.22,-1.18,0.24,-0.20,11.06,98.6,-69
2358,51.218,0.58,1.10,-1.08,0.15,-0.15,11.75,98.7,-70
2359,51.301,0.58,1.11,-1.08,0.20,-0.15,11.75,98.7,-70
2360,51.385,0.58,1.20,-1.18,0.20,-0.15,11.75,98.7,-70
2361,51.468,0.58,1.22,-1.18,0.20,-0.24,11.06,98.7,-70
2362,51.552,0.56,1.15,-1.13,0.15,-0.15,11.06,98.7,-70
2363,51.636,0.52,1.16,-1.13,0.20,-0.20,11.06,98.7,-70
2364,51.736,0.51,1.20,-1.18,0.20,-0.15,11.73,98.8,-73
2365,51.836,0.47,1.15,-1.13,0.20,-0.15,11.71,98.8,-73
2366,51.937,0.52,1.19,-1.18,0.15,-0.10,11.69,98.8,-73
2367,52.037,0.52,1.10,-1.08,0.15,-0.15,11.00,98.8,-73
2368,52.137,0.52,1.15,-1.13,0.15,-0.15,11.00,98.8,-73
2369,52.237,0.53,1.16,-1.13,0.20,-0.20,11.00,98.8,-73
2370,52.321,0.57,1.16,-1.13,0.20,-0.20,11.71,98.9,-73
2371,52.405,0.52,1.15,-1.13,0.20,-0.15,11.73,98.9,-73
2372,52.488,0.52,1.17,-1.13,0.24,-0.20,11.75,98.9,-73
2373,52.572,0.52,1.16,-1.13,0.20,-0.20,11.06,98.9,-73
2374,52.656,0.45,1.18,-1.13,0.24,-0.24,11.06,98.9,-73
2375,52.739,0.42,1.10,-1.08,0.20,-0.10,11.06,98.9,-73
2376,52.823,0.43,1.15,-1.13,0.15,-0.20,11.75,98.9,-73
2377,52.906,0.37,1.16,-1.13,0.24,-0.15,11.75,98.9,-73
2378,52.990,0.44,1.16,-1.13,0.24,-0.15,11.75,98.9,-73
2379,53.074,0.44,1.20,-1.18,0.20,-0.15,11.06,98.9,-73
2380,53.157,0.36,1.12,-1.08,0.20,-0.24,11.06,98.9,-73
2381,53.241,0.42,1.17,-1.13,0.20,-0.24,11.06,98.9,-73
2382,53.325,0.48,1.15,-1.13,0.15,-0.15,11.75,99.0,-73
2383,53.408,0.43,1.16,-1.13,0.20,-0.20,11.75,99.0,-73
2384,53.492,0.41,1.15,-1.13,0.15,-0.20,11.75,99.0,-73
2385,53.575,0.41,1.17,-1.13,0.24,-0.20,11.06,99.0,-73
2386,53.659,0.38,1.20,-1.18,0.20,-0.15,11.06,99.0,-73
2387,53.743,0.45,1.19,-1.18,0.15,-0.15,11.06,99.0,-73
2388,53.826,0.50,1.15,-1.13,0.15,-0.20,11.75,99.0,-73
2389,53.910,0.49,1.21,-1.18,0.24,-0.15,11.75,99.0,-73
2390,53.993,0.46,1.17,-1.13,0.20,-0.24,11.75,99.0,-73
2391,54.077,0.46,1.16,-1.13,0.20,-0.20,11.08,99.0,-73
2392,54.160,0.41,1.16,-1.13,0.15,-0.24,11.11,99.0,-73
2393,54.243,0.44,1.15,-1.13,0.15,-0.20,11.13,99.0,-73
2394,54.344,0.44,1.15,-1.13,0.20,-0.15,11.82,99.1,-73
2395,54.444,0.41,1.16,-1.13,0.20,-0.20,11.82,99.1,-73
2396,54.544,0.46,1.21,-1.18,0.20,-0.20,11.82,99.1,-73
2397,54.644,0.46,1.11,-1.08,0.15,-0.24,11.11,99.1,-73
2398,54.745,0.35,1.16,-1.13,0.20,-0.20,11.08,99.1,-73
2399,54.845,0.34,1.17,-1.13,0.24,-0.20,11.06,99.1,-73
2400,54.929,0.38,1.20,-1.18,0.15,-0.20,11.75,99.2,-69
2401,55.012,0.35,1.14,-1.13,0.10,-0.10,11.76,99.2,-69
2402,55.096,0.33,1.20,-1.18,0.10,-0.24,11.76,99.2,-69
2403,55.180,0.33,1.14,-1.13,0.10,-0.15,11.06,99.2,-69
2404,55.263,0.27,1.19,-1.18,0.10,-0.15,11.06,99.2,-69
2405,55.347,0.30,1.15,-1.13,0.15,-0.15,11.06,99.2,-69
2406,55.430,0.38,1.14,-1.13,0.15,-0.10,11.75,99.2,-66
2407,55.514,0.40,1.17,-1.13,0.20,-0.24,11.75,99.2,-66
2408,55.598,0.40,1.16,-1.13,0.15,-0.24,11.76,99.2,-66
2409,55.681,0.40,1.17,-1.13,0.20,-0.24,11.06,99.2,-66
2410,55.765,0.46,1.16,-1.13,0.20,-0.20,11.06,99.2,-66
2411,55.849,0.40,1.11,-1.08,0.20,-0.20,11.06,99.2,-66
2412,55.932,0.42,1.16,-1.13,0.24,-0.10,11.76,99.2,-68
2413,56.016,0.45,1.16,-1.13,0.20,-0.20,11.76,99.2,-68
2414,56.099,0.51,1.15,-1.13,0.15,-0.20,11.76,99.2,-68
2415,56.182,0.51,1.15,-1.13,0.20,-0.15,11.09,99.2,-68
2416,56.266,0.51,1.20,-1.18,0.20,-0.10,11.11,99.2,-68
2417,56.349,0.54,1.15,-1.13,0.20,-0.15,11.13,99.2,-68
2418,56.450,0.57,1.19,-1.18,0.15,-0.15,11.82,99.3,-68
2419,56.550,0.46,1.16,-1.13,0.20,-0.20,11.82,99.3,-68
2420,56.650,0.40,1.12,-1.08,0.20,-0.24,11.82,99.3,-68
2421,56.750,0.40,1.21,-1.18,0.20,-0.20,11.11,99.3,-68
2422,56.851,0.43,1.21,-1.18,0.20,-0.20,11.08,99.3,-68
2423,56.951,0.40,1.15,-1.13,0.15,-0.20,11.06,99.3,-68
2424,57.035,0.43,1.21,-1.18,0.24,-0.15,11.76,99.3,-70
2425,57.118,0.51,1.15,-1.13,0.10,-0.20,11.76,99.3,-70
2426,57.202,0.50,1.16,-1.13,0.20,-0.20,11.76,99.3,-70
2427,57.286,0.50,1.10,-1.08,0.15,-0.15,11.06,99.3,-70
2428,57.369,0.46,1.21,-1.18,0.20,-0.20,11.06,99.3,-70
2429,57.453,0.53,1.14,-1.13,0.10,-0.15,11.06,99.3,-70
2430,57.536,0.51,1.20,-1.18,0.15,-0.20,11.76,99.4,-68
2431,57.620,0.40,1.19,-1.18,0.15,-0.15,11.76,99.4,-68
2432,57.704,0.45,1.15,-1.13,0.20,-0.15,11.76,99.4,-68
2433,57.787,0.45,1.11,-1.08,0.20,-0.20,11.06,99.4,-68
2434,57.871,0.48,1.16,-1.13,0.20,-0.20,11.06,99.4,-68
2435,57.955,0.51,1.17,-1.13,0.20,-0.24,11.06,99.4,-68
2436,58.038,0.56,1.15,-1.13,0.15,-0.20,11.76,99.4,-75
2437,58.122,0.48,1.15,-1.13,0.20,-0.15,11.76,99.4,-75
2438,58.205,0.41,1.21,-1.18,0.20,-0.20,11.76,99.4,-75
2439,58.289,0.41,1.15,-1.13,0.15,-0.15,11.09,99.4,-75
2440,58.373,0.44,1.15,-1.13,0.20,-0.15,11.11,99.4,-75
2441,58.456,0.45,1.15,-1.13,0.20,-0.15,11.13,99.4,-75
2442,58.557,0.51,1.10,-1.08,0.20,-0.10,11.82,99.4,-70
2443,58.657,0.48,1.20,-1.18,0.20,-0.15,11.82,99.4,-70
2444,58.757,0.45,1.15,-1.13,0.20,-0.15,11.82,99.4,-70
2445,58.857,0.45,1.16,-1.13,0.20,-0.20,11.11,99.4,-70
2446,58.958,0.40,1.20,-1.18,0.15,-0.20,11.09,99.4,-70
2447,59.058,0.40,1.16,-1.13,0.20,-0.20,11.06,99.4,-70
2448,59.142,0.41,1.11,-1.08,0.20,-0.15,11.76,99.5,-69
2449,59.225,0.49,1.20,-1.18,0.20,-0.10,11.76,99.5,-69
2450,59.309,0.49,1.16,-1.13,0.20,-0.20,11.76,99.5,-69
2451,59.393,0.49,1.15,-1.13,0.15,-0.20,11.06,99.5,-69
2452,59.476,0.40,1.17,-1.13,0.24,-0.20,11.06,99.5,-69
2453,59.560,0.45,1.15,-1.13,0.15,-0.20,11.06,99.5,-69
2454,59.643,0.55,1.15,-1.13,0.15,-0.20,11.76,99.5,-68
2455,59.727,0.47,1.21,-1.18,0.15,-0.24,11.76,99.5,-68
2456,59.811,0.51,1.17,-1.13,0.20,-0.24,11.76,99.5,-68
2457,59.894,0.51,1.16,-1.13,0.20,-0.20,11.06,99.5,-68
2458,59.978,0.50,1.15,-1.13,0.15,-0.15,11.06,99.5,-68
2459,60.062,0.45,1.11,-1.08,0.15,-0.20,11.06,99.5,-68
2460,60.145,0.53,1.20,-1.18,0.15,-0.20,11.76,99.5,-67
2461,60.229,0.57,1.15,-1.13,0.15,-0.15,11.76,99.5,-67
2462,60.312,0.61,1.17,-1.13,0.24,-0.20,11.76,99.5,-67
2463,60.396,0.61,1.11,-1.08,0.15,-0.24,11.09,99.5,-67
2464,60.480,0.51,1.11,-1.08,0.15,-0.20,11.11,99.5,-67
2465,60.563,0.50,1.15,-1.13,0.15,-0.20,11.13,99.5,-67
2466,60.664,0.54,1.10,-1.08,0.15,-0.15,11.82,99.6,-67
2467,60.764,0.60,1.11,-1.08,0.20,-0.15,11.82,99.6,-67
2468,60.864,0.66,1.18,-1.13,0.20,-0.29,11.82,99.6,-67
2469,60.964,0.66,1.21,-1.18,0.20,-0.20,11.11,99.6,-67
2470,61.065,0.60,1.16,-1.13,0.20,-0.20,11.09,99.6,-67
2471,61.165,0.51,1.11,-1.08,0.15,-0.24,11.06,99.6,-67
2472,61.249,0.55,1.17,-1.13,0.20,-0.24,11.76,99.6,-68
2473,61.332,0.54,1.15,-1.13,0.10,-0.20,11.76,99.6,-68
2474,61.416,0.52,1.15,-1.13,0.20,-0.15,11.76,99.6,-68
2475,61.499,0.52,1.16,-1.13,0.15,-0.24,11.06,99.6,-68
2476,61.583,0.49,1.15,-1.13,0.15,-0.15,11.06,99.6,-68
2477,61.667,0.49,1.14,-1.13,0.15,-0.10,11.06,99.6,-68
2478,61.750,0.52,1.17,-1.13,0.15,-0.29,11.76,99.6,-69
2479,61.834,0.50,1.11,-1.08,0.15,-0.20,11.76,99.6,-69
2480,61.918,0.57,1.16,-1.13,0.10,-0.24,11.76,99.6,-69
2481,62.001,0.57,1.17,-1.13,0.15,-0.29,11.06,99.6,-69
2482,62.085,0.49,1.11,-1.08,0.15,-0.24,11.06,99.6,-69
2483,62.168,0.51,1.16,-1.13,0.15,-0.24,11.06,99.6,-69
2484,62.252,0.56,1.19,-1.18,0.20,-0.05,11.76,99.6,-68
2485,62.336,0.50,1.11,-1.08,0.24,-0.15,11.76,99.6,-68
2486,62.419,0.53,1.19,-1.18,0.20,-0.05,11.76,99.6,-68
2487,62.503,0.53,1.14,-1.13,0.15,-0.10,11.06,99.6,-68
2488,62.587,0.52,1.15,-1.13,0.15,-0.15,11.06,99.6,-68
2489,62.670,0.48,1.11,-1.08,0.24,-0.15,11.06,99.6,-68
2490,62.770,0.54,1.17,-1.13,0.24,-0.20,11.73,99.7,-69
2491,62.871,0.58,1.21,-1.18,0.20,-0.20,11.71,99.7,-69
2492,62.971,0.63,1.14,-1.13,0.15,-0.10,11.69,99.7,-69
2493,63.071,0.63,1.20,-1.18,0.24,-0.10,11.00,99.7,-69
2494,63.172,0.57,1.15,-1.13,0.20,-0.15,11.00,99.7,-69
2495,63.272,0.55,1.10,-1.08,0.20,-0.10,11.00,99.7,-69
2496,63.355,0.59,1.22,-1.18,0.20,-0.24,11.71,99.7,-68
2497,63.439,0.52,1.22,-1.18,0.20,-0.24,11.73,99.7,-68
2498,63.523,0.56,1.24,-1.18,0.20,-0.34,11.75,99.7,-68
2499,63.606,0.56,1.13,-1.08,0.15,-0.29,11.06,99.7,-68
2500,63.690,0.47,1.17,-1.13,0.20,-0.24,11.06,99.7,-68
2501,63.774,0.51,1.09,-1.08,0.10,-0.15,11.06,99.7,-68
2502,63.857,0.62,1.15,-1.13,0.15,-0.15,11.75,99.7,-67
2503,63.941,0.60,1.17,-1.13,0.20,-0.24,11.75,99.7,-67
2504,64.024,0.60,1.16,-1.13,0.20,-0.20,11.75,99.7,-67
2505,64.108,0.60,1.16,-1.13,0.20,-0.20,11.06,99.7,-67
2506,64.192,0.57,1.11,-1.08,0.15,-0.20,11.06,99.7,-67
2507,64.275,0.60,1.13,-1.08,0.15,-0.29,11.06,99.7,-67
2508,64.359,0.66,1.16,-1.13,0.24,-0.15,11.75,99.7,-67
2509,64.443,0.58,1.15,-1.13,0.20,-0.15,11.75,99.7,-67
2510,64.526,0.57,1.13,-1.08,0.20,-0.29,11.75,99.7,-67
2511,64.610,0.57,1.15,-1.13,0.20,-0.15,11.06,99.7,-67
2512,64.693,0.52,1.15,-1.13,0.20,-0.15,11.06,99.7,-67
2513,64.777,0.45,1.09,-1.08,0.15,-0.10,11.06,99.7,-67
2514,64.861,0.56,1.18,-1.13,0.24,-0.24,11.75,99.7,-67
2515,64.944,0.51,1.15,-1.13,0.20,-0.15,11.75,99.7,-67
2516,65.028,0.48,1.17,-1.13,0.20,-0.24,11.75,99.7,-67
2517,65.112,0.48,1.17,-1.13,0.20,-0.24,11.08,99.7,-67
2518,65.195,0.44,1.15,-1.13,0.15,-0.15,11.10,99.7,-67
2519,65.279,0.47,1.10,-1.08,0.15,-0.15,11.13,99.7,-67
2520,65.379,0.55,1.17,-1.13,0.20,-0.24,11.82,99.7,-67
2521,65.479,0.49,1.16,-1.13,0.20,-0.20,11.82,99.7,-67
2522,65.580,0.45,1.16,-1.13,0.20,-0.20,11.82,99.7,-67
2523,65.680,0.45,1.17,-1.13,0.20,-0.24,11.10,99.7,-67
2524,65.780,0.42,1.21,-1.18,0.15,-0.24,11.08,99.7,-67
2525,65.880,0.34,1.16,-1.13,0.15,-0.24,11.06,99.7,-67
2526,65.964,0.50,1.22,-1.18,0.20,-0.24,11.75,99.8,-67
2527,66.048,0.47,1.17,-1.13,0.24,-0.20,11.75,99.8,-67
2528,66.131,0.48,1.15,-1.13,0.15,-0.20,11.75,99.8,-67
2529,66.215,0.48,1.05,-1.03,0.15,-0.15,11.06,99.8,-67
2530,66.299,0.40,1.11,-1.08,0.20,-0.15,11.06,99.8,-67
2531,66.382,0.41,1.11,-1.08,0.15,-0.20,11.06,99.8,-67
2532,66.466,0.48,1.10,-1.08,0.15,-0.15,11.75,99.8,-67
2533,66.550,0.44,1.11,-1.08,0.20,-0.15,11.75,99.8,-67
2534,66.633,0.42,1.16,-1.13,0.15,-0.24,11.75,99.8,-67
2535,66.717,0.42,1.09,-1.08,0.10,-0.15,11.06,99.8,-67
2536,66.800,0.36,1.15,-1.13,0.15,-0.20,11.06,99.8,-67
2537,66.884,0.43,1.21,-1.18,0.20,-0.20,11.06,99.8,-67
2538,66.968,0.37,1.21,-1.18,0.20,-0.20,11.75,99.8,-65
2539,67.051,0.34,1.16,-1.13,0.20,-0.20,11.75,99.8,-65
2540,67.135,0.37,1.15,-1.13,0.20,-0.15,11.75,99.8,-65
2541,67.219,0.37,1.15,-1.13,0.15,-0.20,11.08,99.8,-65
2542,67.302,0.27,1.17,-1.13,0.20,-0.24,11.10,99.8,-65
2543,67.386,0.37,1.11,-1.08,0.15,-0.24,11.13,99.8,-65
2544,67.486,0.35,1.16,-1.13,0.20,-0.20,11.82,99.8,-63
2545,67.586,0.41,1.12,-1.08,0.24,-0.20,11.82,99.8,-63
2546,67.687,0.45,1.15,-1.13,0.20,-0.15,11.82,99.8,-63
2547,67.787,0.45,1.16,-1.13,0.24,-0.15,11.10,99.8,-63
2548,67.887,0.36,1.15,-1.13,0.15,-0.20,11.08,99.8,-63
2549,67.987,0.38,1.17,-1.13,0.20,-0.24,11.06,99.8,-63
2550,68.071,0.49,1.22,-1.18,0.24,-0.20,11.75,99.8,-66
2551,68.155,0.55,1.19,-1.18,0.15,-0.15,11.75,99.8,-66
2552,68.238,0.54,1.21,-1.18,0.24,-0.15,11.75,99.8,-66
2553,68.322,0.54,1.17,-1.13,0.24,-0.20,11.06,99.8,-66
2554,68.406,0.47,1.20,-1.18,0.15,-0.20,11.06,99.8,-66
2555,68.489,0.48,1.16,-1.13,0.15,-0.24,11.06,99.8,-66
2556,68.573,0.54,1.15,-1.13,0.15,-0.20,11.75,99.8,-66
2557,68.656,0.56,1.15,-1.13,0.15,-0.20,11.75,99.8,-66
2558,68.740,0.54,1.16,-1.13,0.20,-0.20,11.75,99.8,-66
2559,68.824,0.54,1.16,-1.13,0.20,-0.20,11.06,99.8,-66
2560,68.907,0.43,1.15,-1.13,0.15,-0.20,11.06,99.8,-66
2561,68.991,0.52,1.17,-1.13,0.20,-0.24,11.06,99.8,-66
2562,69.074,0.52,1.15,-1.13,0.15,-0.20,11.75,99.8,-66
2563,69.158,0.44,1.16,-1.13,0.20,-0.20,11.75,99.8,-66
2564,69.241,0.41,1.20,-1.18,0.15,-0.20,11.75,99.8,-66
2565,69.325,0.41,1.11,-1.08,0.15,-0.24,11.08,99.8,-66
2566,69.408,0.39,1.15,-1.13,0.15,-0.20,11.11,99.8,-66
2567,69.492,0.42,1.19,-1.18,0.15,-0.15,11.13,99.8,-66
2568,69.592,0.45,1.22,-1.18,0.20,-0.24,11.82,99.8,-65
2569,69.692,0.46,1.16,-1.08,0.29,-0.29,11.82,99.8,-65
2570,69.793,0.51,1.20,-1.18,0.20,-0.10,11.82,99.8,-65
2571,69.893,0.51,1.15,-1.13,0.15,-0.15,11.11,99.8,-65
2572,69.993,0.44,1.16,-1.13,0.15,-0.24,11.08,99.8,-65
2573,70.093,0.46,1.19,-1.13,0.15,-0.34,11.06,99.8,-65
2574,70.177,0.47,1.19,-1.18,0.15,-0.10,11.75,99.9,-66
2575,70.261,0.42,1.15,-1.13,0.20,-0.15,11.75,99.9,-66
2576,70.344,0.45,1.17,-1.13,0.24,-0.20,11.75,99.9,-66
2577,70.428,0.45,1.11,-1.08,0.24,-0.10,11.06,99.9,-66
2578,70.512,0.40,1.06,-1.03,0.20,-0.15,11.06,99.9,-66
2579,70.595,0.51,1.22,-1.18,0.24,-0.20,11.06,99.9,-66
2580,70.679,0.53,1.14,-1.13,0.10,-0.15,11.75,99.9,-64
2581,70.762,0.49,1.11,-1.08,0.20,-0.20,11.75,99.9,-64
2582,70.846,0.47,1.15,-1.13,0.15,-0.20,11.75,99.9,-64
2583,70.930,0.47,1.10,-1.08,0.15,-0.15,11.06,99.9,-64
2584,71.013,0.47,1.11,-1.08,0.24,-0.10,11.06,99.9,-64
2585,71.097,0.49,1.22,-1.18,0.24,-0.20,11.06,99.9,-64
2586,71.181,0.55,1.16,-1.13,0.20,-0.20,11.75,99.9,-69
2587,71.264,0.49,1.20,-1.18,0.15,-0.20,11.75,99.9,-69
2588,71.348,0.48,1.22,-1.18,0.20,-0.24,11.75,99.9,-69
2589,71.431,0.48,1.15,-1.13,0.15,-0.20,11.08,99.9,-69
2590,71.515,0.39,1.16,-1.13,0.24,-0.10,11.11,99.9,-69
2591,71.599,0.43,1.11,-1.08,0.20,-0.15,11.13,99.9,-69
2592,71.699,0.48,1.16,-1.13,0.20,-0.20,11.82,99.9,-63
2593,71.799,0.38,1.11,-1.08,0.15,-0.24,11.82,99.9,-63
2594,71.900,0.41,1.16,-1.13,0.15,-0.24,11.82,99.9,-63
2595,72.000,0.41,1.22,-1.18,0.20,-0.24,11.11,99.9,-63
2596,72.100,0.38,1.17,-1.13,0.15,-0.29,11.08,99.9,-63
2597,72.200,0.45,1.16,-1.13,0.15,-0.24,11.06,99.9,-63
2598,72.284,0.52,1.15,-1.13,0.20,-0.15,11.75,99.9,-66
2599,72.368,0.45,1.21,-1.18,0.24,-0.15,11.75,99.9,-66
2600,72.451,0.46,1.10,-1.08,0.15,-0.15,11.75,99.9,-66
2601,72.535,0.46,1.16,-1.13,0.20,-0.20,11.06,99.9,-66
2602,72.619,0.44,1.15,-1.13,0.15,-0.20,11.06,99.9,-66
2603,72.702,0.40,1.17,-1.13,0.20,-0.24,11.06,99.9,-66
2604,72.786,0.47,1.15,-1.13,0.15,-0.15,11.75,99.9,-66
2605,72.869,0.49,1.15,-1.13,0.20,-0.15,11.75,99.9,-66
2606,72.953,0.40,1.10,-1.08,0.15,-0.15,11.75,99.9,-66
2607,73.036,0.40,1.15,-1.13,0.15,-0.20,11.06,99.9,-66
2608,73.119,0.37,1.16,-1.13,0.20,-0.20,11.06,99.9,-66
2609,73.203,0.44,1.11,-1.08,0.20,-0.15,11.06,99.9,-66
2610,73.287,0.47,1.20,-1.18,0.20,-0.15,11.76,99.9,-67
2611,73.370,0.45,1.20,-1.18,0.15,-0.20,11.76,99.9,-67
2612,73.454,0.44,1.16,-1.13,0.24,-0.15,11.76,99.9,-67
2613,73.537,0.44,1.16,-1.13,0.20,-0.20,11.06,99.9,-67
2614,73.621,0.42,1.11,-1.08,0.15,-0.20,11.06,99.9,-67
2615,73.705,0.46,1.17,-1.13,0.24,-0.20,11.06,99.9,-67
2616,73.805,0.45,1.15,-1.13,0.20,-0.15,11.73,99.9,-67
2617,73.905,0.46,1.22,-1.18,0.24,-0.20,11.71,99.9,-67
2618,74.005,0.44,1.15,-1.13,0.20,-0.15,11.69,99.9,-67
2619,74.106,0.44,1.19,-1.18,0.15,-0.15,11.00,99.9,-67
2620,74.206,0.41,1.10,-1.08,0.15,-0.15,11.00,99.9,-67
2621,74.306,0.46,1.27,-1.22,0.24,-0.24,11.00,99.9,-67
2622,74.390,0.52,1.22,-1.18,0.20,-0.24,11.71,99.9,-65
2623,74.474,0.51,1.15,-1.13,0.15,-0.15,11.73,99.9,-65
2624,74.557,0.48,1.15,-1.13,0.20,-0.15,11.76,99.9,-65
2625,74.641,0.48,1.15,-1.13,0.20,-0.15,11.06,99.9,-65
2626,74.724,0.47,1.16,-1.13,0.24,-0.15,11.06,99.9,-65
2627,74.808,0.53,1.21,-1.18,0.20,-0.20,11.06,99.9,-65
2628,74.892,0.55,1.16,-1.13,0.20,-0.20,11.76,99.9,-66
2629,74.975,0.53,1.15,-1.13,0.15,-0.20,11.76,99.9,-66
2630,75.059,0.55,1.17,-1.13,0.20,-0.24,11.76,99.9,-66
2631,75.143,0.55,1.15,-1.13,0.20,-0.15,11.06,99.9,-66
2632,75.226,0.44,1.15,-1.13,0.15,-0.20,11.06,99.9,-66
2633,75.310,0.49,1.20,-1.18,0.20,-0.15,11.06,99.9,-66
2634,75.393,0.53,1.10,-1.08,0.15,-0.15,11.76,99.9,-64
2635,75.477,0.48,1.14,-1.13,0.15,-0.10,11.76,99.9,-64
2636,75.561,0.46,1.16,-1.13,0.20,-0.20,11.76,99.9,-64
2637,75.644,0.46,1.16,-1.13,0.15,-0.24,11.06,99.9,-64
2638,75.728,0.49,1.11,-1.08,0.20,-0.15,11.06,99.9,-64
2639,75.812,0.44,1.11,-1.08,0.15,-0.24,11.06,99.9,-64
2640,75.895,0.47,1.11,-1.08,0.15,-0.20,11.76,99.9,-66
2641,75.979,0.40,1.15,-1.13,0.15,-0.15,11.76,99.9,-66
2642,76.062,0.44,1.21,-1.18,0.20,-0.20,11.76,99.9,-66
2643,76.146,0.44,1.11,-1.08,0.20,-0.15,11.09,99.9,-66
2644,76.230,0.43,1.20,-1.18,0.20,-0.10,11.11,99.9,-66
2645,76.313,0.39,1.20,-1.18,0.20,-0.15,11.13,99.9,-66
2646,76.414,0.47,1.11,-1.08,0.15,-0.20,11.82,99.9,-67
2647,76.514,0.40,1.11,-1.08,0.20,-0.15,11.82,99.9,-67
2648,76.614,0.39,1.16,-1.13,0.20,-0.20,11.82,99.9,-67
2649,76.714,0.39,1.09,-1.08,0.15,-0.05,11.11,99.9,-67
2650,76.815,0.47,1.11,-1.08,0.15,-0.20,11.09,99.9,-67
2651,76.915,0.43,1.11,-1.08,0.20,-0.20,11.06,99.9,-67
2652,76.999,0.51,1.11,-1.08,0.15,-0.20,11.76,99.9,-68
2653,77.082,0.50,1.15,-1.13,0.20,-0.15,11.76,99.9,-68
2654,77.166,0.45,1.11,-1.08,0.20,-0.20,11.76,99.9,-68
2655,77.250,0.45,1.15,-1.13,0.15,-0.15,11.06,99.9,-68
2656,77.333,0.48,1.17,-1.13,0.20,-0.24,11.06,99.9,-68
2657,77.417,0.49,1.10,-1.08,0.15,-0.15,11.06,99.9,-68
2658,77.500,0.56,1.16,-1.13,0.20,-0.20,11.76,99.9,-68
2659,77.584,0.50,1.16,-1.13,0.20,-0.20,11.76,99.9,-68
2660,77.668,0.44,1.10,-1.08,0.15,-0.15,11.76,99.9,-68
2661,77.751,0.44,1.11,-1.08,0.20,-0.20,11.06,99.9,-68
2662,77.835,0.42,1.22,-1.18,0.20,-0.24,11.06,99.9,-68
2663,77.919,0.44,1.15,-1.13,0.20,-0.15,11.06,99.9,-68
2664,78.002,0.51,1.15,-1.13,0.15,-0.20,11.75,99.9,-71
2665,78.086,0.54,1.17,-1.13,0.20,-0.24,11.75,99.9,-71
2666,78.170,0.55,1.15,-1.13,0.20,-0.15,11.75,99.9,-71
2667,78.253,0.55,1.22,-1.18,0.20,-0.24,11.08,99.9,-71
2668,78.337,0.55,1.18,-1.13,0.24,-0.24,11.11,99.9,-71
2669,78.420,0.50,1.16,-1.13,0.20,-0.20,11.13,99.9,-71
2670,78.521,0.61,1.11,-1.08,0.20,-0.20,11.82,99.9,-68
2671,78.621,0.60,1.16,-1.13,0.20,-0.20,11.82,99.9,-68
2672,78.721,0.56,1.20,-1.18,0.20,-0.15,11.82,99.9,-68
2673,78.821,0.56,1.16,-1.13,0.20,-0.20,11.11,99.9,-68
2674,78.922,0.53,1.15,-1.13,0.15,-0.20,11.08,99.9,-68
2675,79.022,0.54,1.16,-1.13,0.20,-0.20,11.06,99.9,-68
2676,79.106,0.57,1.15,-1.13,0.15,-0.20,11.75,99.9,-69
2677,79.189,0.42,1.15,-1.13,0.20,-0.15,11.75,99.9,-69
2678,79.273,0.52,1.11,-1.08,0.15,-0.20,11.75,99.9,-69
2679,79.357,0.52,1.15,-1.13,0.15,-0.20,11.06,99.9,-69
2680,79.440,0.49,1.15,-1.13,0.20,-0.10,11.06,99.9,-69
2681,79.524,0.40,1.22,-1.18,0.24,-0.20,11.06,99.9,-69
2682,79.607,0.45,1.17,-1.13,0.20,-0.24,11.75,100.0,-71
2683,79.691,0.39,1.18,-1.13,0.24,-0.24,11.75,100.0,-71
2684,79.775,0.37,1.21,-1.18,0.20,-0.20,11.75,100.0,-71
2685,79.858,0.37,1.16,-1.13,0.15,-0.24,11.06,100.0,-71
2686,79.942,0.33,1.17,-1.13,0.24,-0.20,11.06,100.0,-71
2687,80.026,0.41,1.20,-1.18,0.20,-0.15,11.06,100.0,-71
2688,80.109,0.53,1.22,-1.18,0.20,-0.24,11.75,100.0,-66
2689,80.193,0.57,1.10,-1.08,0.15,-0.15,11.75,100.0,-66
2690,80.276,0.47,1.11,-1.08,0.15,-0.20,11.75,100.0,-66
2691,80.360,0.47,1.06,-1.03,0.15,-0.20,11.08,100.0,-66
2692,80.444,0.45,1.17,-1.13,0.20,-0.24,11.11,100.0,-66
2693,80.527,0.47,1.15,-1.13,0.15,-0.20,11.13,100.0,-66
2694,80.627,0.52,1.15,-1.13,0.15,-0.15,11.82,100.0,-69
2695,80.727,0.49,1.15,-1.13,0.20,-0.15,11.82,100.0,-69
2696,80.828,0.51,1.11,-1.08,0.20,-0.20,11.82,100.0,-69
2697,80.928,0.51,1.17,-1.13,0.24,-0.20,11.11,100.0,-69
2698,81.028,0.40,1.11,-1.08,0.15,-0.20,11.09,100.0,-69
2699,81.128,0.46,1.16,-1.13,0.20,-0.20,11.06,100.0,-69
2700,81.212,0.57,1.15,-1.13,0.20,-0.15,11.76,100.0,-68
2701,81.295,0.45,1.06,-1.03,0.20,-0.15,11.76,100.0,-68
2702,81.379,0.47,1.16,-1.13,0.20,-0.20,11.76,100.0,-68
2703,81.462,0.47,1.16,-1.13,0.20,-0.20,11.06,100.0,-68
2704,81.546,0.45,1.15,-1.13,0.20,-0.10,11.06,100.0,-68
2705,81.630,0.53,1.23,-1.18,0.24,-0.24,11.06,100.0,-68
2706,81.713,0.53,1.16,-1.13,0.20,-0.20,11.75,100.0,-74
2707,81.797,0.53,1.15,-1.13,0.20,-0.15,11.75,100.0,-74
2708,81.881,0.52,1.21,-1.18,0.24,-0.15,11.75,100.0,-74
2709,81.964,0.52,1.20,-1.18,0.20,-0.15,11.06,100.0,-74
2710,82.048,0.46,1.16,-1.13,0.20,-0.20,11.06,100.0,-74
2711,82.131,0.45,1.11,-1.08,0.20,-0.15,11.06,100.0,-74
2712,82.215,0.54,1.22,-1.18,0.20,-0.24,11.75,100.0,-77
2713,82.299,0.57,1.15,-1.13,0.15,-0.20,11.75,100.0,-77
2714,82.382,0.52,1.15,-1.13,0.15,-0.15,11.75,100.0,-77
2715,82.466,0.52,1.16,-1.13,0.20,-0.20,11.08,100.0,-77
2716,82.550,0.49,1.20,-1.18,0.20,-0.15,11.11,100.0,-77
2717,82.633,0.45,1.23,-1.18,0.24,-0.24,11.13,100.0,-77
2718,82.733,0.63,1.11,-1.08,0.20,-0.15,11.82,100.0,-71
2719,82.834,0.52,1.15,-1.13,0.20,-0.15,11.82,100.0,-71
2720,82.934,0.56,1.20,-1.18,0.20,-0.15,11.82,100.0,-71
2721,83.034,0.56,1.11,-1.08,0.20,-0.15,11.11,100.0,-71
2722,83.134,0.52,1.10,-1.08,0.15,-0.15,11.08,100.0,-71
2723,83.235,0.59,1.11,-1.08,0.20,-0.20,11.06,100.0,-71
2724,83.318,0.64,1.11,-1.08,0.15,-0.20,11.75,100.0,-69
2725,83.402,0.58,1.17,-1.13,0.20,-0.24,11.75,100.0,-69
2726,83.486,0.45,1.21,-1.18,0.20,-0.20,11.75,100.0,-69
2727,83.569,0.45,1.15,-1.13,0.15,-0.20,11.06,100.0,-69
2728,83.653,0.44,1.19,-1.18,0.15,-0.15,11.06,100.0,-69
2729,83.736,0.47,1.11,-1.08,0.15,-0.20,11.06,100.0,-69
2730,83.820,0.52,1.16,-1.13,0.20,-0.20,11.75,100.0,-70
2731,83.904,0.49,1.15,-1.13,0.15,-0.20,11.75,100.0,-70
2732,83.987,0.45,1.11,-1.08,0.15,-0.20,11.75,100.0,-70
2733,84.071,0.45,1.16,-1.13,0.20,-0.20,11.06,100.0,-70
2734,84.155,0.38,1.15,-1.13,0.15,-0.20,11.06,100.0,-70
2735,84.238,0.40,1.15,-1.13,0.15,-0.15,11.06,100.0,-70
2736,84.322,0.46,1.11,-1.08,0.15,-0.20,11.75,100.0,-70
2737,84.405,0.39,1.13,-1.08,0.24,-0.24,11.75,100.0,-70
2738,84.489,0.44,1.21,-1.18,0.20,-0.20,11.75,100.0,-70
2739,84.573,0.44,1.16,-1.13,0.20,-0.20,11.06,100.0,-70
2740,84.656,0.45,1.15,-1.13,0.15,-0.15,11.06,100.0,-70
2741,84.740,0.47,1.11,-1.08,0.24,-0.15,11.06,100.0,-70
2742,84.840,0.53,1.17,-1.13,0.20,-0.24,11.73,100.0,-71
2743,84.940,0.54,1.13,-1.08,0.24,-0.24,11.71,100.0,-71
2744,85.040,0.56,1.16,-1.13,0.20,-0.20,11.69,100.0,-71
2745,85.141,0.56,1.17,-1.13,0.24,-0.20,11.00,100.0,-71
2746,85.241,0.53,1.23,-1.18,0.24,-0.24,11.00,100.0,-71
2747,85.341,0.49,1.11,-1.08,0.20,-0.20,11.00,100.0,-71
2748,85.425,0.59,1.11,-1.08,0.20,-0.20,11.71,100.0,-72
2749,85.508,0.60,1.15,-1.13,0.20,-0.15,11.73,100.0,-72
2750,85.592,0.55,1.11,-1.08,0.20,-0.15,11.76,100.0,-72
2751,85.676,0.55,1.21,-1.18,0.24,-0.15,11.06,100.0,-72
2752,85.759,0.54,1.17,-1.13,0.24,-0.20,11.06,100.0,-72
2753,85.843,0.48,1.11,-1.08,0.20,-0.15,11.06,100.0,-72
2754,85.926,0.53,1.16,-1.13,0.20,-0.20,11.76,100.0,-69
2755,86.010,0.42,1.15,-1.13,0.15,-0.20,11.76,100.0,-69
2756,86.094,0.43,1.15,-1.13,0.20,-0.10,11.76,100.0,-69
2757,86.177,0.43,1.16,-1.13,0.20,-0.20,11.06,100.0,-69
2758,86.261,0.47,1.20,-1.18,0.20,-0.15,11.06,100.0,-69
2759,86.344,0.52,1.15,-1.13,0.15,-0.20,11.06,100.0,-69
2760,86.428,0.54,1.15,-1.13,0.20,-0.15,11.76,100.0,-71
2761,86.512,0.62,1.13,-1.08,0.20,-0.29,11.76,100.0,-71
2762,86.595,0.62,1.20,-1.18,0.20,-0.15,11.76,100.0,-71
2763,86.679,0.62,1.11,-1.08,0.20,-0.15,11.06,100.0,-71
2764,86.762,0.55,1.19,-1.13,0.24,-0.29,11.06,100.0,-71
2765,86.846,0.53,1.17,-1.13,0.15,-0.29,11.06,100.0,-71
2766,86.930,0.64,1.16,-1.13,0.20,-0.20,11.76,100.0,-70
2767,87.013,0.58,1.22,-1.18,0.20,-0.24,11.76,100.0,-70
2768,87.097,0.63,1.16,-1.13,0.20,-0.20,11.76,100.0,-70
2769,87.180,0.63,1.15,-1.13,0.20,-0.10,11.09,100.0,-70
2770,87.264,0.60,1.11,-1.08,0.20,-0.20,11.11,100.0,-70
2771,87.348,0.63,1.06,-1.03,0.15,-0.20,11.13,100.0,-70
2772,87.448,0.62,1.16,-1.13,0.20,-0.20,11.82,100.0,-66
2773,87.548,0.53,1.15,-1.13,0.20,-0.10,11.82,100.0,-66
2774,87.648,0.53,1.15,-1.13,0.15,-0.15,11.83,100.0,-66
2775,87.748,0.53,1.11,-1.08,0.20,-0.20,11.11,100.0,-66
2776,87.848,0.46,1.15,-1.13,0.15,-0.15,11.09,100.0,-66
2777,87.948,0.45,1.15,-1.13,0.20,-0.15,11.07,100.0,-66
2778,88.032,0.52,1.16,-1.13,0.20,-0.20,11.76,100.0,-74
2779,88.115,0.46,1.16,-1.13,0.20,-0.20,11.76,100.0,-74
2780,88.199,0.50,1.11,-1.08,0.24,-0.15,11.76,100.0,-74
2781,88.282,0.50,1.16,-1.13,0.20,-0.20,11.07,100.0,-74
2782,88.366,0.53,1.11,-1.08,0.20,-0.15,11.07,100.0,-74
2783,88.450,0.50,1.18,-1.13,0.24,-0.24,11.07,100.0,-74
2784,88.533,0.64,1.15,-1.13,0.15,-0.20,11.76,100.0,-67
2785,88.617,0.56,1.17,-1.13,0.20,-0.24,11.76,100.0,-67
2786,88.700,0.54,1.20,-1.18,0.20,-0.15,11.76,100.0,-67
2787,88.784,0.54,1.17,-1.13,0.20,-0.24,11.07,100.0,-67
2788,88.868,0.43,1.17,-1.13,0.20,-0.24,11.07,100.0,-67
2789,88.951,0.49,1.11,-1.08,0.20,-0.15,11.07,100.0,-67
2790,89.035,0.57,1.15,-1.13,0.15,-0.20,11.76,100.0,-70
2791,89.119,0.55,1.16,-1.13,0.20,-0.20,11.76,100.0,-70
2792,89.202,0.57,1.11,-1.08,0.15,-0.20,11.76,100.0,-70
2793,89.286,0.57,1.21,-1.18,0.20,-0.20,11.09,100.0,-70
2794,89.369,0.57,1.11,-1.08,0.15,-0.24,11.11,100.0,-70
2795,89.453,0.59,1.16,-1.13,0.20,-0.20,11.13,100.0,-70
2796,89.553,0.56,1.16,-1.13,0.24,-0.15,11.83,100.0,-63
2797,89.653,0.45,1.15,-1.13,0.20,-0.10,11.83,100.0,-63
2798,89.754,0.46,1.15,-1.13,0.20,-0.15,11.83,100.0,-63
2799,89.854,0.46,1.19,-1.18,0.15,-0.10,11.11,100.0,-63
2800,89.954,0.50,1.11,-1.08,0.20,-0.15,11.09,100.0,-63
2801,90.054,0.54,1.16,-1.13,0.20,-0.20,11.07,100.0,-63
2802,90.138,0.53,1.20,-1.18,0.20,-0.15,11.76,100.0,-64
2803,90.222,0.52,1.11,-1.08,0.20,-0.15,11.76,100.0,-64
2804,90.305,0.50,1.17,-1.13,0.24,-0.20,11.76,100.0,-64
2805,90.389,0.50,1.10,-1.08,0.15,-0.15,11.07,100.0,-64
2806,90.472,0.46,1.11,-1.08,0.20,-0.20,11.07,100.0,-64
2807,90.556,0.43,1.21,-1.18,0.15,-0.24,11.07,100.0,-64
2808,90.640,0.43,1.16,-1.13,0.20,-0.20,11.76,100.0,-64
2809,90.723,0.41,1.16,-1.13,0.20,-0.20,11.76,100.0,-64
2810,90.807,0.40,1.16,-1.13,0.20,-0.20,11.76,100.0,-64
2811,90.890,0.40,1.18,-1.13,0.20,-0.29,11.07,100.0,-64
2812,90.974,0.34,1.16,-1.13,0.20,-0.20,11.07,100.0,-64
2813,91.058,0.38,1.11,-1.08,0.15,-0.24,11.07,100.0,-64
2814,91.141,0.43,1.16,-1.13,0.20,-0.20,11.76,100.0,-69
2815,91.225,0.41,1.20,-1.18,0.20,-0.15,11.76,100.0,-69
2816,91.308,0.43,1.15,-1.13,0.20,-0.15,11.76,100.0,-69
2817,91.392,0.43,1.11,-1.08,0.20,-0.20,11.09,100.0,-69
2818,91.476,0.41,1.15,-1.13,0.15,-0.20,11.11,100.0,-69
2819,91.559,0.42,1.16,-1.13,0.24,-0.15,11.13,100.0,-69
2820,91.659,0.53,1.24,-1.18,0.24,-0.29,11.83,100.0,-66
2821,91.760,0.52,1.16,-1.13,0.20,-0.20,11.83,100.0,-66
2822,91.860,0.48,1.16,-1.13,0.20,-0.20,11.83,100.0,-66
2823,91.960,0.48,1.16,-1.13,0.20,-0.20,11.11,100.0,-66
2824,92.060,0.50,1.15,-1.13,0.20,-0.15,11.09,100.0,-66
2825,92.160,0.50,1.21,-1.18,0.20,-0.20,11.07,100.0,-66
2826,92.244,0.56,1.11,-1.08,0.20,-0.15,11.76,100.0,-69
2827,92.328,0.53,1.17,-1.13,0.20,-0.24,11.76,100.0,-69
2828,92.411,0.48,1.15,-1.13,0.20,-0.15,11.76,100.0,-69
2829,92.495,0.48,1.12,-1.08,0.20,-0.24,11.07,100.0,-69
2830,92.578,0.48,1.22,-1.18,0.24,-0.20,11.07,100.0,-69
2831,92.662,0.51,1.16,-1.13,0.20,-0.20,11.07,100.0,-69
2832,92.746,0.61,1.15,-1.13,0.20,-0.15,11.76,100.0,-68
2833,92.829,0.56,1.11,-1.08,0.20,-0.20,11.76,100.0,-68
2834,92.913,0.54,1.10,-1.08,0.20,-0.10,11.76,100.0,-68
2835,92.996,0.54,1.10,-1.08,0.15,-0.15,11.07,100.0,-68
2836,93.080,0.53,1.20,-1.18,0.24,-0.10,11.07,100.0,-68
2837,93.164,0.50,1.22,-1.18,0.20,-0.24,11.07,100.0,-68
2838,93.247,0.60,1.17,-1.13,0.20,-0.24,11.76,100.0,-63
2839,93.331,0.56,1.20,-1.18,0.20,-0.15,11.76,100.0,-63
2840,93.414,0.52,1.18,-1.13,0.20,-0.29,11.76,100.0,-63
2841,93.498,0.52,1.11,-1.08,0.15,-0.20,11.09,100.0,-63
2842,93.582,0.54,1.15,-1.13,0.20,-0.15,11.11,100.0,-63
2843,93.665,0.51,1.10,-1.08,0.15,-0.15,11.13,100.0,-63
2844,93.766,0.58,1.17,-1.13,0.20,-0.24,11.83,100.0,-67
2845,93.866,0.53,1.21,-1.18,0.24,-0.15,11.83,100.0,-67
2846,93.966,0.52,1.11,-1.08,0.20,-0.20,11.83,100.0,-67
2847,94.066,0.52,1.16,-1.13,0.20,-0.20,11.11,100.0,-67
2848,94.166,0.46,1.16,-1.13,0.20,-0.20,11.09,100.0,-67
2849,94.267,0.47,1.17,-1.13,0.24,-0.20,11.07,100.0,-67
2850,94.350,0.59,1.21,-1.18,0.20,-0.20,11.76,100.0,-77
2851,94.434,0.55,1.16,-1.13,0.15,-0.24,11.76,100.0,-77
2852,94.518,0.56,1.11,-1.08,0.20,-0.15,11.76,100.0,-77
2853,94.601,0.56,1.15,-1.13,0.20,-0.15,11.07,100.0,-77
2854,94.685,0.50,1.15,-1.13,0.15,-0.20,11.07,100.0,-77
2855,94.768,0.50,1.17,-1.13,0.24,-0.20,11.07,100.0,-77
2856,94.852,0.54,1.20,-1.18,0.24,-0.10,11.76,100.0,-71
2857,94.936,0.56,1.15,-1.13,0.20,-0.15,11.76,100.0,-71
2858,95.019,0.48,1.15,-1.13,0.15,-0.20,11.76,100.0,-71
2859,95.103,0.48,1.10,-1.08,0.15,-0.15,11.07,100.0,-71
2860,95.187,0.53,1.09,-1.08,0.15,-0.10,11.07,100.0,-71
2861,95.270,0.58,1.20,-1.18,0.20,-0.10,11.07,100.0,-71
2862,95.354,0.65,1.15,-1.13,0.15,-0.20,11.76,100.0,-66
2863,95.437,0.55,1.14,-1.13,0.15,-0.05,11.76,100.0,-66
2864,95.521,0.61,1.16,-1.13,0.20,-0.20,11.76,100.0,-66
2865,95.605,0.61,1.17,-1.13,0.24,-0.20,11.07,100.0,-66
2866,95.688,0.60,1.15,-1.13,0.20,-0.15,11.07,100.0,-66
2867,95.772,0.57,1.20,-1.18,0.15,-0.20,11.07,100.0,-66
2868,95.872,0.59,1.17,-1.13,0.20,-0.24,11.74,100.0,-67
2869,95.972,0.62,1.22,-1.18,0.24,-0.20,11.71,100.0,-67
2870,96.073,0.66,1.17,-1.13,0.20,-0.24,11.69,100.0,-67
2871,96.173,0.66,1.15,-1.13,0.20,-0.15,11.00,100.0,-67
2872,96.273,0.57,1.21,-1.18,0.20,-0.20,11.00,100.0,-67
2873,96.373,0.63,1.17,-1.13,0.24,-0.20,11.00,100.0,-67
2874,96.457,0.69,1.16,-1.13,0.20,-0.20,11.71,100.0,-77
2875,96.541,0.71,1.22,-1.18,0.24,-0.20,11.73,100.0,-77
2876,96.624,0.65,1.21,-1.18,0.20,-0.20,11.76,100.0,-77
2877,96.708,0.65,1.22,-1.18,0.20,-0.24,11.06,100.0,-77
2878,96.791,0.59,1.17,-1.13,0.24,-0.20,11.06,100.0,-77
2879,96.875,0.57,1.20,-1.18,0.20,-0.15,11.06,100.0,-77
2880,96.959,0.60,1.10,-1.08,0.15,-0.15,11.76,100.0,-72
2881,97.042,0.61,1.16,-1.13,0.20,-0.20,11.76,100.0,-72
2882,97.126,0.58,1.15,-1.13,0.15,-0.20,11.76,100.0,-72
2883,97.210,0.58,1.15,-1.13,0.20,-0.15,11.06,100.0,-72
2884,97.293,0.58,1.20,-1.18,0.20,-0.15,11.06,100.0,-72
2885,97.377,0.59,1.19,-1.13,0.24,-0.29,11.06,100.0,-72
2886,97.460,0.58,1.15,-1.13,0.15,-0.15,11.76,100.0,-65
2887,97.544,0.53,1.15,-1.13,0.15,-0.15,11.76,100.0,-65
2888,97.628,0.55,1.17,-1.13,0.24,-0.20,11.76,100.0,-65
2889,97.711,0.55,1.18,-1.13,0.24,-0.24,11.06,100.0,-65
2890,97.795,0.48,1.17,-1.13,0.24,-0.20,11.06,100.0,-65
2891,97.879,0.51,1.11,-1.08,0.20,-0.20,11.06,100.0,-65
2892,97.962,0.51,1.16,-1.13,0.15,-0.24,11.76,100.0,-65
2893,98.046,0.46,1.07,-1.03,0.20,-0.20,11.76,100.0,-65
2894,98.129,0.49,1.21,-1.18,0.24,-0.15,11.76,100.0,-65
2895,98.213,0.49,1.18,-1.13,0.24,-0.24,11.09,100.0,-65
2896,98.297,0.48,1.15,-1.13,0.15,-0.20,11.11,100.0,-65
2897,98.380,0.52,1.16,-1.13,0.20,-0.20,11.13,100.0,-65
2898,98.480,0.63,1.12,-1.08,0.20,-0.24,11.82,100.0,-67
2899,98.581,0.65,1.15,-1.13,0.20,-0.15,11.82,100.0,-67
2900,98.681,0.58,1.16,-1.13,0.20,-0.20,11.82,100.0,-67
2901,98.781,0.58,1.12,-1.08,0.20,-0.24,11.11,100.0,-67
2902,98.881,0.55,1.16,-1.13,0.20,-0.20,11.09,100.0,-67
2903,98.982,0.48,1.11,-1.08,0.20,-0.20,11.06,100.0,-67
2904,99.065,0.53,1.10,-1.08,0.15,-0.15,11.76,100.0,-68
2905,99.149,0.54,1.15,-1.13,0.15,-0.15,11.76,100.0,-68
2906,99.233,0.59,1.11,-1.08,0.20,-0.20,11.76,100.0,-68
2907,99.316,0.59,1.11,-1.08,0.20,-0.15,11.06,100.0,-68
2908,99.400,0.58,1.16,-1.13,0.20,-0.20,11.06,100.0,-68
2909,99.483,0.61,1.16,-1.13,0.20,-0.20,11.06,100.0,-68
2910,99.567,0.65,1.15,-1.13,0.15,-0.20,11.76,100.0,-74
2911,99.651,0.63,1.16,-1.13,0.20,-0.20,11.76,100.0,-74
2912,99.734,0.63,1.20,-1.18,0.20,-0.10,11.76,100.0,-74
2913,99.818,0.63,1.11,-1.08,0.20,-0.15,11.06,100.0,-74
2914,99.902,0.51,1.21,-1.18,0.20,-0.20,11.06,100.0,-74
2915,99.985,0.51,1.11,-1.08,0.20,-0.15,11.06,100.0,-74
2916,100.069,0.57,1.16,-1.13,0.15,-0.24,11.76,100.0,-71
2917,100.152,0.59,1.22,-1.18,0.20,-0.24,11.76,100.0,-71
2918,100.236,0.64,1.16,-1.13,0.20,-0.20,11.76,100.0,-71
2919,100.320,0.64,1.20,-1.18,0.20,-0.15,11.08,100.0,-71
2920,100.403,0.65,1.19,-1.18,0.15,-0.15,11.11,100.0,-71
2921,100.487,0.64,1.15,-1.13,0.20,-0.15,11.13,100.0,-71
2922,100.587,0.60,1.16,-1.13,0.20,-0.20,11.82,100.0,-72
2923,100.687,0.55,1.15,-1.13,0.15,-0.20,11.82,100.0,-72
2924,100.788,0.61,1.15,-1.13,0.20,-0.15,11.82,100.0,-72
2925,100.888,0.61,1.17,-1.13,0.24,-0.20,11.11,100.0,-72
2926,100.988,0.59,1.16,-1.13,0.20,-0.20,11.08,100.0,-72
2927,101.088,0.59,1.18,-1.13,0.24,-0.24,11.06,100.0,-72
2928,101.172,0.65,1.11,-1.08,0.20,-0.15,11.75,100.0,-64
2929,101.256,0.61,1.21,-1.18,0.20,-0.20,11.75,100.0,-64
2930,101.339,0.59,1.20,-1.18,0.20,-0.15,11.75,100.0,-64
2931,101.423,0.59,1.11,-1.08,0.20,-0.20,11.06,100.0,-64
2932,101.507,0.53,1.16,-1.13,0.20,-0.20,11.06,100.0,-64
2933,101.590,0.56,1.16,-1.13,0.24,-0.15,11.06,100.0,-64
2934,101.674,0.62,1.15,-1.13,0.20,-0.15,11.75,100.0,-66
2935,101.757,0.61,1.23,-1.18,0.24,-0.24,11.75,100.0,-66
2936,101.841,0.65,1.11,-1.08,0.20,-0.20,11.75,100.0,-66
2937,101.925,0.65,1.16,-1.13,0.20,-0.20,11.06,100.0,-66
2938,102.008,0.60,1.12,-1.08,0.24,-0.20,11.06,100.0,-66
2939,102.092,0.60,1.16,-1.13,0.20,-0.20,11.06,100.0,-66
2940,102.176,0.60,1.20,-1.18,0.20,-0.15,11.75,100.0,-72
2941,102.259,0.53,1.16,-1.13,0.20,-0.20,11.75,100.0,-72
2942,102.343,0.47,1.17,-1.13,0.20,-0.24,11.75,100.0,-72
2943,102.426,0.47,1.18,-1.13,0.24,-0.24,11.08,100.0,-72
2944,102.510,0.47,1.11,-1.08,0.20,-0.15,11.11,100.0,-72
2945,102.594,0.44,1.17,-1.13,0.20,-0.24,11.13,100.0,-72
2946,102.694,0.49,1.16,-1.13,0.20,-0.20,11.82,100.0,-70
2947,102.794,0.55,1.11,-1.08,0.20,-0.15,11.82,100.0,-70
2948,102.894,0.59,1.19,-1.18,0.15,-0.10,11.82,100.0,-70
2949,102.995,0.59,1.13,-1.08,0.24,-0.24,11.11,100.0,-70
2950,103.095,0.56,1.15,-1.13,0.15,-0.15,11.08,100.0,-70
2951,103.195,0.56,1.12,-1.08,0.24,-0.20,11.06,100.0,-70
2952,103.279,0.59,1.13,-1.08,0.15,-0.29,11.75,100.0,-64
2953,103.362,0.56,1.15,-1.13,0.15,-0.20,11.75,100.0,-64
2954,103.446,0.61,1.20,-1.18,0.15,-0.20,11.75,100.0,-64
2955,103.530,0.61,1.16,-1.13,0.20,-0.20,11.06,100.0,-64
2956,103.613,0.62,1.20,-1.18,0.20,-0.15,11.06,100.0,-64
2957,103.697,0.61,1.15,-1.13,0.20,-0.15,11.06,100.0,-64
2964,103.864,0.63,1.15,-1.13,0.20,-0.15,11.64,94.5,-67
2965,104.031,0.68,1.22,-1.18,0.24,-0.20,11.53,94.5,-67
2966,104.197,0.66,1.15,-1.13,0.15,-0.15,11.43,94.5,-67
2967,104.364,0.66,1.11,-1.08,0.20,-0.15,10.65,94.5,-67
2968,104.531,0.62,1.14,-1.13,0.15,-0.10,10.56,94.5,-67
2969,104.698,0.62,1.26,-1.22,0.24,-0.15,10.46,94.5,-67
2970,104.798,0.63,1.16,-1.13,0.20,-0.20,11.09,94.8,-65
2971,104.898,0.63,1.21,-1.18,0.20,-0.20,11.07,94.8,-65
2972,104.999,0.61,1.16,-1.13,0.20,-0.20,11.05,94.8,-65
2973,105.099,0.61,1.20,-1.18,0.20,-0.10,10.40,94.8,-65
2974,105.199,0.56,1.10,-1.08,0.15,-0.15,10.40,94.8,-65
2975,105.299,0.57,1.16,-1.13,0.20,-0.20,10.40,94.8,-65
2976,105.383,0.64,1.15,-1.13,0.15,-0.15,11.07,95.1,-65
2977,105.467,0.70,1.15,-1.13,0.15,-0.20,11.09,95.1,-65
2978,105.550,0.71,1.22,-1.18,0.20,-0.24,11.11,95.1,-65
2979,105.634,0.71,1.16,-1.13,0.24,-0.15,10.46,95.1,-65
2980,105.718,0.69,1.16,-1.13,0.20,-0.20,10.46,95.1,-65
2981,105.801,0.70,1.17,-1.13,0.24,-0.20,10.46,95.1,-65
2982,105.885,0.74,1.15,-1.13,0.20,-0.15,11.11,95.4,-61
2983,105.968,0.71,1.14,-1.13,0.15,-0.10,11.11,95.4,-61
2984,106.052,0.63,1.15,-1.13,0.15,-0.15,11.11,95.4,-61
2985,106.136,0.63,1.23,-1.18,0.20,-0.29,10.46,95.4,-61
2986,106.219,0.54,1.10,-1.08,0.15,-0.15,10.46,95.4,-61
2987,106.303,0.52,1.13,-1.08,0.29,-0.20,10.46,95.4,-61
2988,106.386,0.64,1.11,-1.08,0.15,-0.24,11.11,95.7,-66
2989,106.470,0.65,1.11,-1.08,0.20,-0.15,11.11,95.7,-66
2990,106.554,0.54,1.11,-1.08,0.24,-0.15,11.11,95.7,-66
2991,106.637,0.54,1.11,-1.08,0.15,-0.20,10.46,95.7,-66
2992,106.721,0.55,1.16,-1.13,0.15,-0.24,10.46,95.7,-66
2993,106.804,0.61,1.16,-1.13,0.20,-0.20,10.46,95.7,-66
2994,106.905,0.64,1.15,-1.13,0.15,-0.20,11.09,95.9,-66
2995,107.005,0.53,1.16,-1.13,0.20,-0.20,11.07,95.9,-66
2996,107.105,0.61,1.20,-1.18,0.15,-0.20,11.05,95.9,-66
2997,107.206,0.61,1.11,-1.08,0.20,-0.15,10.39,95.9,-66
2998,107.306,0.54,1.15,-1.13,0.20,-0.15,10.37,95.9,-66
2999,107.406,0.49,1.22,-1.18,0.24,-0.20,10.35,95.9,-66
3000,107.490,0.55,1.15,-1.13,0.20,-0.15,11.00,96.2,-75
3001,107.573,0.54,1.12,-1.08,0.20,-0.24,11.00,96.2,-75
3002,107.657,0.51,1.15,-1.13,0.20,-0.15,11.00,96.2,-75
3003,107.740,0.51,1.14,-1.13,0.15,-0.10,10.37,96.2,-75
3004,107.824,0.51,1.23,-1.18,0.24,-0.24,10.39,96.2,-75
3005,107.908,0.52,1.22,-1.18,0.20,-0.24,10.40,96.2,-75
3006,107.991,0.62,1.21,-1.18,0.20,-0.20,11.07,96.4,-68
3007,108.075,0.58,1.11,-1.08,0.24,-0.15,11.09,96.4,-68
3008,108.159,0.55,1.16,-1.13,0.20,-0.20,11.11,96.4,-68
3009,108.242,0.55,1.16,-1.13,0.24,-0.15,10.46,96.4,-68
3010,108.326,0.53,1.15,-1.13,0.15,-0.20,10.46,96.4,-68
3011,108.409,0.56,1.11,-1.08,0.24,-0.15,10.46,96.4,-68
3012,108.493,0.59,1.15,-1.13,0.20,-0.15,11.11,96.6,-69
3013,108.577,0.63,1.17,-1.13,0.24,-0.20,11.12,96.6,-69
3014,108.660,0.64,1.21,-1.18,0.15,-0.24,11.12,96.6,-69
3015,108.744,0.64,1.21,-1.18,0.24,-0.15,10.46,96.6,-69
3016,108.827,0.61,1.16,-1.13,0.20,-0.20,10.46,96.6,-69
3017,108.911,0.62,1.10,-1.08,0.15,-0.15,10.46,96.6,-69
3018,108.995,0.56,1.11,-1.08,0.20,-0.20,11.11,96.8,-70
3019,109.079,0.48,1.10,-1.08,0.15,-0.15,11.11,96.8,-70
3020,109.162,0.55,1.14,-1.13,0.15,-0.10,11.11,96.8,-70
3021,109.246,0.55,1.15,-1.13,0.15,-0.20,10.46,96.8,-70
3022,109.330,0.49,1.16,-1.13,0.20,-0.20,10.46,96.8,-70
3023,109.414,0.53,1.15,-1.13,0.20,-0.10,10.46,96.8,-70
3024,109.514,0.58,1.16,-1.13,0.20,-0.20,11.09,97.0,-66
3025,109.614,0.57,1.10,-1.08,0.20,0.00,11.07,97.0,-66
3026,109.714,0.52,1.22,-1.18,0.20,-0.24,11.05,97.0,-66
3027,109.815,0.52,1.12,-1.08,0.20,-0.24,10.40,97.0,-66
3028,109.915,0.47,1.16,-1.13,0.20,-0.20,10.40,97.0,-66
3029,110.015,0.52,1.11,-1.08,0.20,-0.15,10.40,97.0,-66
3030,110.099,0.57,1.10,-1.08,0.15,-0.15,11.07,97.2,-67
3031,110.182,0.59,1.11,-1.08,0.15,-0.20,11.09,97.2,-67
3032,110.266,0.60,1.16,-1.13,0.20,-0.20,11.11,97.2,-67
3033,110.350,0.60,1.12,-1.08,0.20,-0.24,10.46,97.2,-67
3034,110.433,0.57,1.16,-1.13,0.20,-0.20,10.46,97.2,-67
3035,110.517,0.61,1.11,-1.08,0.15,-0.20,10.46,97.2,-67
3036,110.600,0.66,1.11,-1.08,0.20,-0.20,11.11,97.3,-67
3037,110.684,0.66,1.16,-1.13,0.20,-0.20,11.11,97.3,-67
3038,110.768,0.66,1.10,-1.08,0.15,-0.15,11.11,97.3,-67
3039,110.851,0.66,1.23,-1.18,0.24,-0.24,10.46,97.3,-67
3040,110.935,0.63,1.15,-1.13,0.20,-0.15,10.46,97.3,-67
3041,111.019,0.68,1.15,-1.13,0.20,-0.10,10.46,97.3,-67
3042,111.102,0.62,1.15,-1.13,0.20,-0.15,11.11,97.5,-66
3043,111.186,0.61,1.10,-1.08,0.15,-0.15,11.11,97.5,-66
3044,111.269,0.62,1.16,-1.13,0.20,-0.20,11.11,97.5,-66
3045,111.353,0.62,1.20,-1.18,0.20,-0.15,10.46,97.5,-66
3046,111.437,0.58,1.21,-1.18,0.20,-0.20,10.46,97.5,-66
3047,111.520,0.64,1.15,-1.13,0.15,-0.15,10.46,97.5,-66
3048,111.620,0.63,1.11,-1.08,0.15,-0.20,11.09,97.6,-67
3049,111.721,0.54,1.16,-1.13,0.20,-0.20,11.07,97.6,-67
3050,111.821,0.58,1.15,-1.13,0.15,-0.15,11.05,97.6,-67
3051,111.921,0.58,1.18,-1.13,0.24,-0.24,10.40,97.6,-67
3052,112.021,0.53,1.16,-1.13,0.20,-0.20,10.40,97.6,-67
3053,112.122,0.48,1.16,-1.13,0.20,-0.20,10.40,97.6,-67
3054,112.205,0.56,1.17,-1.13,0.20,-0.24,11.07,97.8,-67
3055,112.289,0.49,1.17,-1.13,0.15,-0.29,11.09,97.8,-67
3056,112.372,0.50,1.21,-1.18,0.20,-0.20,11.11,97.8,-67
3057,112.456,0.50,1.24,-1.18,0.24,-0.29,10.46,97.8,-67
3058,112.540,0.55,1.20,-1.18,0.20,-0.15,10.46,97.8,-67
3059,112.623,0.54,1.17,-1.13,0.20,-0.24,10.46,97.8,-67
3060,112.707,0.53,1.11,-1.08,0.15,-0.20,11.11,97.9,-65
3061,112.790,0.50,1.21,-1.18,0.20,-0.20,11.11,97.9,-65
3062,112.874,0.54,1.11,-1.08,0.20,-0.20,11.12,97.9,-65
3063,112.957,0.54,1.16,-1.13,0.20,-0.20,10.56,97.9,-65
3064,113.041,0.55,1.22,-1.18,0.24,-0.20,10.65,97.9,-65
3065,113.124,0.61,1.15,-1.13,0.15,-0.15,10.75,97.9,-65
3066,113.208,0.56,1.20,-1.18,0.20,-0.15,11.53,98.0,-68
3067,113.291,0.49,1.11,-1.08,0.20,-0.20,11.64,98.0,-68
3068,113.375,0.58,1.22,-1.18,0.20,-0.24,11.76,98.0,-68
3069,113.458,0.58,1.17,-1.13,0.20,-0.24,11.09,98.0,-68
3070,113.542,0.53,1.13,-1.08,0.15,-0.29,11.11,98.0,-68
3071,113.626,0.47,1.14,-1.13,0.15,-0.10,11.13,98.0,-68
3072,113.726,0.59,1.16,-1.13,0.20,-0.20,11.82,98.1,-61
3073,113.826,0.60,1.18,-1.13,0.24,-0.24,11.82,98.1,-61
3074,113.926,0.62,1.16,-1.13,0.20,-0.20,11.82,98.1,-61
3075,114.027,0.62,1.16,-1.13,0.24,-0.15,11.11,98.1,-61
3076,114.127,0.59,1.16,-1.13,0.20,-0.20,11.09,98.1,-61
3077,114.227,0.56,1.15,-1.13,0.15,-0.15,11.06,98.1,-61
3078,114.311,0.63,1.11,-1.08,0.15,-0.24,11.76,98.2,-63
3079,114.394,0.51,1.15,-1.13,0.20,-0.15,11.76,98.2,-63
3080,114.478,0.48,1.15,-1.13,0.20,-0.10,11.76,98.2,-63
3081,114.562,0.48,1.23,-1.18,0.24,-0.24,11.06,98.2,-63
3082,114.645,0.51,1.15,-1.13,0.20,-0.15,11.06,98.2,-63
3083,114.729,0.46,1.15,-1.13,0.20,-0.15,11.06,98.2,-63
3084,114.812,0.47,1.15,-1.13,0.20,-0.10,11.76,98.3,-64
3085,114.896,0.47,1.19,-1.18,0.15,-0.15,11.76,98.3,-64
3086,114.980,0.48,1.19,-1.18,0.15,-0.15,11.76,98.3,-64
3087,115.063,0.48,1.15,-1.13,0.20,-0.10,11.06,98.3,-64
3088,115.147,0.48,1.15,-1.13,0.15,-0.15,11.06,98.3,-64
3089,115.231,0.52,1.20,-1.18,0.20,-0.15,11.06,98.3,-64
3090,115.314,0.54,1.16,-1.13,0.20,-0.20,11.76,98.4,-65
3091,115.397,0.51,1.15,-1.13,0.20,-0.10,11.76,98.4,-65
3092,115.481,0.49,1.11,-1.08,0.20,-0.20,11.76,98.4,-65
3093,115.564,0.49,1.15,-1.13,0.15,-0.20,11.09,98.4,-65
3094,115.648,0.45,1.21,-1.18,0.20,-0.20,11.11,98.4,-65
3095,115.731,0.51,1.18,-1.13,0.24,-0.24,11.13,98.4,-65
3096,115.831,0.61,1.15,-1.13,0.15,-0.15,11.82,98.5,-69
3097,115.932,0.58,1.15,-1.13,0.15,-0.15,11.82,98.5,-69
3098,116.032,0.58,1.12,-1.08,0.20,-0.24,11.82,98.5,-69
3099,116.132,0.58,1.15,-1.13,0.20,-0.10,11.11,98.5,-69
3100,116.232,0.54,1.16,-1.13,0.24,-0.15,11.09,98.5,-69
3101,116.333,0.61,1.17,-1.13,0.20,-0.24,11.07,98.5,-69
3102,116.416,0.62,1.15,-1.13,0.15,-0.15,11.76,98.6,-70
3103,116.500,0.60,1.16,-1.13,0.20,-0.20,11.76,98.6,-70
3104,116.583,0.66,1.15,-1.13,0.20,-0.15,11.76,98.6,-70
3105,116.667,0.66,1.11,-1.08,0.15,-0.20,11.07,98.6,-70
3106,116.751,0.57,1.17,-1.13,0.20,-0.24,11.07,98.6,-70
3107,116.834,0.66,1.18,-1.13,0.24,-0.24,11.07,98.6,-70
3108,116.918,0.70,1.16,-1.13,0.20,-0.20,11.76,98.7,-67
3109,117.001,0.68,1.11,-1.08,0.20,-0.15,11.76,98.7,-67
3110,117.085,0.60,1.22,-1.18,0.20,-0.24,11.76,98.7,-67
3111,117.169,0.60,1.11,-1.08,0.20,-0.20,11.07,98.7,-67
3112,117.252,0.63,1.23,-1.18,0.24,-0.24,11.07,98.7,-67
3113,117.336,0.55,1.17,-1.13,0.24,-0.20,11.07,98.7,-67
3114,117.419,0.55,1.15,-1.13,0.15,-0.15,11.76,98.8,-63
3115,117.503,0.52,1.22,-1.18,0.20,-0.24,11.76,98.8,-63
3116,117.587,0.46,1.16,-1.13,0.20,-0.20,11.76,98.8,-63
3117,117.670,0.46,1.10,-1.08,0.15,-0.15,11.07,98.8,-63
3118,117.754,0.43,1.11,-1.08,0.20,-0.20,11.07,98.8,-63
3119,117.838,0.42,1.11,-1.08,0.15,-0.20,11.07,98.8,-63
3120,117.938,0.54,1.21,-1.18,0.20,-0.20,11.74,98.9,-64
3121,118.038,0.50,1.11,-1.08,0.15,-0.20,11.71,98.9,-64
3122,118.138,0.52,1.17,-1.13,0.20,-0.24,11.69,98.9,-64
3123,118.238,0.52,1.15,-1.13,0.20,-0.15,11.00,98.9,-64
3124,118.339,0.49,1.22,-1.18,0.20,-0.24,11.00,98.9,-64
3125,118.439,0.49,1.16,-1.13,0.20,-0.20,11.00,98.9,-64
3126,118.523,0.56,1.17,-1.13,0.20,-0.24,11.71,98.9,-64
3127,118.606,0.56,1.16,-1.13,0.20,-0.20,11.74,98.9,-64
3128,118.690,0.59,1.15,-1.13,0.20,-0.10,11.76,98.9,-64
3129,118.773,0.59,1.16,-1.13,0.20,-0.20,11.07,98.9,-64
3130,118.857,0.55,1.21,-1.18,0.20,-0.20,11.07,98.9,-64
3131,118.941,0.51,1.16,-1.13,0.20,-0.20,11.07,98.9,-64
3132,119.024,0.64,1.15,-1.13,0.15,-0.15,11.76,99.0,-65
3133,119.107,0.56,1.15,-1.13,0.15,-0.20,11.76,99.0,-65
3134,119.191,0.56,1.11,-1.08,0.15,-0.20,11.76,99.0,-65
3135,119.274,0.56,1.11,-1.08,0.20,-0.15,11.07,99.0,-65
3136,119.358,0.50,1.15,-1.13,0.20,-0.15,11.07,99.0,-65
3137,119.441,0.52,1.15,-1.13,0.15,-0.20,11.07,99.0,-65
3138,119.525,0.57,1.15,-1.13,0.20,-0.15,11.76,99.0,-63
3139,119.608,0.51,1.17,-1.13,0.20,-0.24,11.76,99.0,-63
3140,119.692,0.52,1.12,-1.08,0.20,-0.24,11.76,99.0,-63
3141,119.776,0.52,1.21,-1.18,0.20,-0.20,11.07,99.0,-63
3142,119.859,0.52,1.20,-1.18,0.20,-0.10,11.07,99.0,-63
3143,119.943,0.54,1.11,-1.08,0.20,-0.20,11.07,99.0,-63
3144,120.043,0.65,1.16,-1.13,0.20,-0.20,11.74,99.1,-64
3145,120.143,0.68,1.16,-1.13,0.20,-0.20,11.72,99.1,-64
3146,120.244,0.53,1.21,-1.18,0.20,-0.20,11.69,99.1,-64
3147,120.344,0.53,1.11,-1.08,0.20,-0.20,11.00,99.1,-64
3148,120.444,0.52,1.11,-1.08,0.20,-0.15,11.00,99.1,-64
3149,120.544,0.50,1.22,-1.18,0.20,-0.24,11.00,99.1,-64
3150,120.628,0.47,1.16,-1.13,0.20,-0.20,11.72,99.1,-65
3151,120.711,0.46,1.19,-1.18,0.15,-0.10,11.74,99.1,-65
3152,120.795,0.45,1.10,-1.08,0.20,-0.10,11.76,99.1,-65
3153,120.879,0.45,1.11,-1.08,0.24,-0.15,11.07,99.1,-65
3154,120.962,0.47,1.11,-1.08,0.15,-0.20,11.07,99.1,-65
3155,121.046,0.58,1.21,-1.18,0.24,-0.15,11.07,99.1,-65
3156,121.129,0.65,1.16,-1.13,0.20,-0.20,11.76,99.2,-64
3157,121.213,0.50,1.18,-1.13,0.24,-0.24,11.76,99.2,-64
3158,121.297,0.51,1.21,-1.18,0.15,-0.24,11.76,99.2,-64
3159,121.380,0.51,1.11,-1.08,0.20,-0.20,11.07,99.2,-64
3160,121.464,0.42,1.18,-1.13,0.24,-0.24,11.07,99.2,-64
3161,121.547,0.49,1.15,-1.13,0.15,-0.15,11.07,99.2,-64
3162,121.631,0.53,1.16,-1.13,0.20,-0.20,11.76,99.2,-64
3163,121.715,0.58,1.21,-1.18,0.20,-0.20,11.76,99.2,-64
3164,121.798,0.61,1.16,-1.13,0.24,-0.15,11.76,99.2,-64
3165,121.882,0.61,1.15,-1.13,0.15,-0.15,11.07,99.2,-64
3166,121.965,0.53,1.16,-1.13,0.20,-0.20,11.07,99.2,-64
3167,122.049,0.55,1.17,-1.13,0.20,-0.24,11.07,99.2,-64
3168,122.133,0.65,1.15,-1.13,0.20,-0.15,11.76,99.3,-65
3169,122.216,0.64,1.15,-1.13,0.15,-0.15,11.76,99.3,-65
3170,122.300,0.63,1.17,-1.13,0.24,-0.20,11.76,99.3,-65
3171,122.383,0.63,1.21,-1.18,0.20,-0.20,11.09,99.3,-65
3172,122.467,0.63,1.15,-1.13,0.15,-0.15,11.11,99.3,-65
3173,122.551,0.59,1.21,-1.18,0.20,-0.20,11.13,99.3,-65
3174,122.651,0.68,1.15,-1.13,0.15,-0.20,11.83,99.3,-64
3175,122.751,0.65,1.15,-1.13,0.20,-0.15,11.83,99.3,-64
3176,122.851,0.60,1.18,-1.13,0.20,-0.29,11.83,99.3,-64
3177,122.952,0.60,1.16,-1.13,0.20,-0.20,11.11,99.3,-64
3178,123.052,0.64,1.16,-1.13,0.24,-0.10,11.09,99.3,-64
3179,123.152,0.69,1.17,-1.13,0.24,-0.20,11.07,99.3,-64
3180,123.236,0.72,1.15,-1.13,0.15,-0.15,11.76,99.4,-64
3181,123.319,0.74,1.15,-1.13,0.20,-0.15,11.76,99.4,-64
3182,123.403,0.78,1.15,-1.13,0.20,-0.15,11.76,99.4,-64
3183,123.487,0.78,1.15,-1.13,0.20,-0.15,11.07,99.4,-64
3184,123.570,0.75,1.18,-1.13,0.24,-0.24,11.07,99.4,-64
3185,123.654,0.71,1.10,-1.08,0.15,-0.15,11.07,99.4,-64
3186,123.737,0.64,1.24,-1.18,0.24,-0.29,11.76,99.4,-65
3187,123.821,0.64,1.15,-1.13,0.20,-0.15,11.76,99.4,-65
3188,123.905,0.67,1.15,-1.13,0.20,-0.15,11.76,99.4,-65
3189,123.988,0.67,1.21,-1.18,0.24,-0.15,11.07,99.4,-65
3190,124.072,0.65,1.20,-1.18,0.20,-0.15,11.07,99.4,-65
3191,124.155,0.65,1.17,-1.13,0.20,-0.24,11.07,99.4,-65
3192,124.239,0.71,1.17,-1.13,0.24,-0.20,11.76,99.4,-58
3193,124.323,0.67,1.23,-1.18,0.24,-0.24,11.76,99.4,-58
3194,124.406,0.65,1.20,-1.18,0.24,-0.10,11.76,99.4,-58
3195,124.490,0.65,1.20,-1.18,0.20,-0.15,11.09,99.4,-58
3196,124.573,0.62,1.22,-1.18,0.15,-0.29,11.11,99.4,-58
3197,124.657,0.66,1.13,-1.08,0.20,-0.29,11.13,99.4,-58
3198,124.757,0.73,2.79,-2.74,0.49,-0.05,11.83,99.5,-83
3199,124.857,1.47,2.69,-2.65,0.49,-0.05,11.83,99.5,-83
3200,124.958,2.18,2.75,-2.70,0.54,-0.10,11.83,99.5,-83
3201,125.058,2.18,2.72,-2.65,0.64,-0.05,11.11,99.5,-83
3202,125.158,2.73,3.97,-3.92,0.64,0.05,11.09,99.5,-83
3203,125.258,3.28,7.16,-7.11,0.83,0.39,11.07,99.5,-83
3204,125.342,3.84,2.62,-2.35,0.83,0.78,11.76,99.5,-72
3205,125.426,5.79,2.47,-2.20,0.83,0.74,11.76,99.5,-72
3206,125.509,7.36,2.51,-2.16,0.98,0.83,11.76,99.5,-72
3207,125.593,7.36,2.68,-2.25,1.03,1.03,11.07,99.5,-72
3208,125.676,8.60,2.76,-2.25,1.18,1.08,11.07,99.5,-72
3209,125.760,9.57,2.78,-2.25,1.13,1.18,11.07,99.5,-72
3210,125.844,10.44,4.66,-1.81,4.02,1.52,11.76,99.5,-87
3211,125.927,11.27,4.69,-1.91,3.92,1.72,11.76,99.5,-87
3212,126.011,11.27,5.23,-1.81,4.36,2.25,11.76,99.5,-87
3213,126.094,11.55,5.47,-1.72,4.70,2.20,11.07,99.5,-87
3214,126.178,11.75,5.53,-1.76,4.95,1.72,11.07,99.5,-87
3215,126.262,11.75,6.01,-1.81,5.59,1.27,11.07,99.5,-87
3216,126.345,11.73,2.53,-0.88,-2.20,0.88,11.76,99.6,-90
3217,126.429,16.02,3.29,-0.20,-3.28,0.15,11.76,99.6,-90
3218,126.512,18.27,2.69,-0.29,-2.06,-1.72,11.76,99.6,-90
3219,126.596,18.27,3.55,-0.39,-0.83,-3.43,11.09,99.6,-90
3220,126.680,19.89,3.46,-0.29,-0.69,-3.38,11.11,99.6,-90
3221,126.763,21.39,2.99,0.05,1.91,-2.30,11.13,99.6,-90
3222,126.864,20.42,0.81,0.05,0.78,0.20,11.83,99.6,-70
3223,126.964,19.27,0.76,0.10,0.15,0.74,11.83,99.6,-70
3224,127.064,20.01,0.64,0.05,-0.64,-0.05,11.83,99.6,-70
3225,127.164,20.01,1.60,0.05,-1.47,-0.64,11.11,99.6,-70
3226,127.264,19.91,1.80,-0.10,-1.03,-1.47,11.09,99.6,-70
3227,127.365,19.78,2.68,-0.20,-0.34,-2.65,11.07,99.6,-70
3228,127.448,20.06,0.90,-0.10,0.15,-0.88,11.76,99.6,-71
3229,127.532,18.53,0.88,-0.05,0.39,-0.78,11.76,99.6,-71
3230,127.616,17.27,0.87,-0.10,0.59,-0.64,11.76,99.6,-71
3231,127.699,17.27,0.76,-0.05,0.54,-0.54,11.07,99.6,-71
3232,127.783,16.21,0.73,-0.05,0.54,-0.49,11.07,99.6,-71
3233,127.866,15.42,0.67,-0.10,0.54,-0.39,11.07,99.6,-71
3234,127.950,14.84,0.49,-0.05,-0.49,0.00,11.76,99.6,-79
3235,128.034,13.82,0.49,-0.05,-0.49,0.00,11.76,99.6,-79
3236,128.117,13.01,0.59,-0.05,-0.59,-0.05,11.76,99.6,-79
3237,128.201,13.01,0.69,-0.05,-0.69,-0.05,11.07,99.6,-79
3238,128.284,12.39,0.69,-0.05,-0.69,-0.10,11.07,99.6,-79
3239,128.368,11.93,0.74,0.00,-0.74,-0.10,11.07,99.6,-79
3240,128.451,11.64,2.53,-0.24,-2.01,-1.52,11.76,99.7,-113
3241,128.535,10.25,2.62,-0.24,-2.01,-1.67,11.76,99.7,-113
3242,128.619,9.32,2.79,-0.24,-2.06,-1.86,11.76,99.7,-113
3243,128.702,9.32,3.08,-0.29,-2.40,-1.91,11.09,99.7,-113
3244,128.786,8.49,3.02,-0.20,-2.60,-1.52,11.11,99.7,-113
3245,128.869,8.11,2.96,-0.15,-2.65,-1.32,11.13,99.7,-113
3246,128.953,8.38,0.31,-0.20,0.00,-0.24,11.85,99.7,-120
3247,129.037,6.21,0.30,0.05,0.00,-0.29,11.87,99.7,-120
3248,129.120,4.68,0.45,-0.10,-0.05,-0.44,11.89,99.7,-120
3249,129.204,4.68,0.50,-0.10,0.05,-0.49,11.19,99.7,-120
3250,129.288,3.49,0.61,-0.15,0.10,-0.59,11.19,99.7,-120
3251,129.371,2.63,0.66,-0.15,0.10,-0.64,11.19,99.7,-120
3258,129.555,0.26,0.92,0.20,-0.20,-0.88,11.76,94.2,-106
3259,129.738,0.16,4.55,0.64,-3.09,-3.28,11.62,94.2,-106
3260,129.921,0.07,0.70,0.24,-0.15,-0.64,11.49,94.2,-106
3261,130.105,0.07,3.25,1.22,-1.81,-2.40,10.70,94.2,-106
3262,130.288,-0.06,3.67,2.94,-2.16,-0.39,10.58,94.2,-106
3263,130.472,-0.12,2.69,2.25,-1.47,-0.15,10.46,94.2,-106
3264,130.555,-0.18,1.21,-0.10,-0.54,-1.08,11.12,94.5,-108
3265,130.639,-0.22,1.15,-0.15,-0.49,-1.03,11.12,94.5,-108
3266,130.722,-0.25,1.16,-0.20,-0.49,-1.03,11.12,94.5,-108
3267,130.806,-0.25,1.14,-0.10,-0.49,-1.03,10.46,94.5,-108
3268,130.890,-0.34,1.21,-0.15,-0.54,-1.08,10.46,94.5,-108
3269,130.973,-0.32,1.21,-0.15,-0.54,-1.08,10.46,94.5,-108
3270,131.057,-0.24,1.16,-0.05,-0.54,-1.03,11.12,94.9,-106
3271,131.140,-0.23,1.19,-0.10,-0.49,-1.08,11.12,94.9,-106
3272,131.224,-0.23,1.19,-0.10,-0.49,-1.08,11.12,94.9,-106
3273,131.308,-0.23,1.21,-0.05,-0.54,-1.08,10.46,94.9,-106
3274,131.391,-0.33,1.19,-0.15,-0.49,-1.08,10.46,94.9,-106
3275,131.475,-0.34,1.11,-0.15,-0.49,-0.98,10.46,94.9,-106
3276,131.575,-0.31,1.15,-0.15,-0.49,-1.03,11.10,95.2,-109
3277,131.675,-0.33,1.21,-0.15,-0.54,-1.08,11.08,95.2,-109
3278,131.775,-0.36,1.21,-0.05,-0.54,-1.08,11.06,95.2,-109
3279,131.876,-0.36,1.24,-0.20,-0.59,-1.08,10.41,95.2,-109
3280,131.976,-0.31,1.17,-0.15,-0.54,-1.03,10.41,95.2,-109
3281,132.076,-0.31,1.17,-0.15,-0.54,-1.03,10.41,95.2,-109
3282,132.160,-0.27,1.15,-0.15,-0.49,-1.03,11.08,95.4,-109
3283,132.243,-0.21,1.19,-0.10,-0.59,-1.03,11.10,95.4,-109
3284,132.327,-0.30,1.17,-0.10,-0.54,-1.03,11.12,95.4,-109
3285,132.411,-0.30,1.23,-0.05,-0.59,-1.08,10.46,95.4,-109
3286,132.494,-0.33,1.23,-0.10,-0.59,-1.08,10.46,95.4,-109
3287,132.578,-0.32,1.26,-0.15,-0.54,-1.13,10.46,95.4,-109
3288,132.661,-0.23,1.24,-0.15,-0.59,-1.08,11.12,95.7,-111
3289,132.745,-0.24,1.19,-0.15,-0.49,-1.08,11.12,95.7,-111
3290,132.829,-0.25,1.21,-0.15,-0.54,-1.08,11.12,95.7,-111
3291,132.912,-0.25,1.21,-0.10,-0.54,-1.08,10.46,95.7,-111
3292,132.996,-0.28,1.17,-0.10,-0.54,-1.03,10.46,95.7,-111
3293,133.079,-0.32,1.19,-0.15,-0.59,-1.03,10.46,95.7,-111
3294,133.163,-0.26,1.12,-0.05,-0.54,-0.98,11.12,96.0,-109
3295,133.247,-0.24,1.19,-0.10,-0.49,-1.08,11.12,96.0,-109
3296,133.330,-0.34,1.24,-0.15,-0.49,-1.13,11.12,96.0,-109
3297,133.414,-0.34,1.20,-0.20,-0.49,-1.08,10.46,96.0,-109
3298,133.497,-0.39,1.20,-0.20,-0.59,-1.03,10.46,96.0,-109
3299,133.581,-0.45,1.21,-0.10,-0.54,-1.08,10.46,96.0,-109
3300,133.681,-0.35,1.24,-0.15,-0.59,-1.08,11.10,96.2,-109
3301,133.781,-0.45,1.21,-0.05,-0.54,-1.08,11.08,96.2,-109
3302,133.882,-0.45,1.15,-0.15,-0.49,-1.03,11.06,96.2,-109
3303,133.982,-0.45,1.19,-0.05,-0.49,-1.08,10.41,96.2,-109
3304,134.082,-0.43,1.14,-0.10,-0.49,-1.03,10.41,96.2,-109
3305,134.182,-0.45,1.21,-0.10,-0.54,-1.08,10.41,96.2,-109
3306,134.266,-0.34,1.21,-0.15,-0.54,-1.08,11.08,96.4,-108
3307,134.349,-0.30,1.21,-0.05,-0.54,-1.08,11.10,96.4,-108
3308,134.433,-0.31,1.23,-0.10,-0.59,-1.08,11.12,96.4,-108
3309,134.517,-0.31,1.17,-0.15,-0.54,-1.03,10.46,96.4,-108
3310,134.600,-0.37,1.21,-0.05,-0.54,-1.08,10.46,96.4,-108
3311,134.684,-0.35,1.17,-0.10,-0.54,-1.03,10.46,96.4,-108
3312,134.767,-0.34,1.21,-0.10,-0.54,-1.08,11.12,96.6,-107
3313,134.851,-0.38,1.23,-0.10,-0.59,-1.08,11.12,96.6,-107
3314,134.935,-0.41,1.17,-0.10,-0.54,-1.03,11.12,96.6,-107
3315,135.018,-0.41,1.15,-0.15,-0.49,-1.03,10.46,96.6,-107
3316,135.102,-0.39,1.19,-0.10,-0.59,-1.03,10.46,96.6,-107
3317,135.185,-0.38,1.17,-0.15,-0.54,-1.03,10.46,96.6,-107
3318,135.269,-0.33,1.21,-0.10,-0.54,-1.08,11.12,96.8,-108
3319,135.353,-0.31,1.21,-0.10,-0.54,-1.08,11.12,96.8,-108
3320,135.436,-0.29,1.17,-0.10,-0.54,-1.03,11.12,96.8,-108
3321,135.520,-0.29,1.21,-0.15,-0.54,-1.08,10.46,96.8,-108
3322,135.603,-0.30,1.24,-0.15,-0.59,-1.08,10.46,96.8,-108
3323,135.687,-0.31,1.13,-0.15,-0.54,-0.98,10.46,96.8,-108
3324,135.787,-0.23,1.25,-0.05,-0.54,-1.13,11.10,97.0,-106
3325,135.888,-0.24,1.15,-0.15,-0.49,-1.03,11.08,97.0,-106
3326,135.988,-0.30,1.23,-0.05,-0.59,-1.08,11.06,97.0,-106
3327,136.088,-0.30,1.15,-0.10,-0.59,-0.98,10.41,97.0,-106
3328,136.188,-0.37,1.15,-0.15,-0.49,-1.03,10.41,97.0,-106
3329,136.288,-0.29,1.15,-0.15,-0.49,-1.03,10.41,97.0,-106
3330,136.372,-0.24,1.17,-0.15,-0.54,-1.03,11.08,97.2,-106
3331,136.456,-0.32,1.15,-0.15,-0.49,-1.03,11.10,97.2,-106
3332,136.539,-0.33,1.16,-0.20,-0.49,-1.03,11.12,97.2,-106
3333,136.623,-0.33,1.17,-0.15,-0.54,-1.03,10.46,97.2,-106
3334,136.706,-0.30,1.21,-0.10,-0.54,-1.08,10.46,97.2,-106
3335,136.790,-0.26,1.23,-0.10,-0.59,-1.08,10.46,97.2,-106
3336,136.874,-0.25,1.17,-0.15,-0.54,-1.03,11.12,97.4,-106
3337,136.957,-0.33,1.17,-0.15,-0.54,-1.03,11.12,97.4,-106
3338,137.041,-0.33,1.14,-0.10,-0.49,-1.03,11.12,97.4,-106
3339,137.124,-0.33,1.11,-0.20,-0.49,-0.98,10.46,97.4,-106
3340,137.208,-0.42,1.21,-0.10,-0.54,-1.08,10.46,97.4,-106
3341,137.292,-0.41,1.19,-0.10,-0.59,-1.03,10.46,97.4,-106
3342,137.375,-0.39,1.18,-0.20,-0.54,-1.03,11.12,97.5,-105
3343,137.459,-0.32,1.19,-0.10,-0.49,-1.08,11.12,97.5,-105
3344,137.542,-0.35,1.16,-0.20,-0.49,-1.03,11.12,97.5,-105
3345,137.626,-0.35,1.17,-0.10,-0.54,-1.03,10.46,97.5,-105
3346,137.710,-0.44,1.19,-0.05,-0.49,-1.08,10.46,97.5,-105
3347,137.793,-0.40,1.21,-0.10,-0.54,-1.08,10.46,97.5,-105
3348,137.893,-0.37,1.21,-0.05,-0.54,-1.08,11.10,97.7,-105
3349,137.994,-0.44,1.17,-0.10,-0.54,-1.03,11.08,97.7,-105
3350,138.094,-0.43,1.19,-0.10,-0.59,-1.03,11.06,97.7,-105
3351,138.194,-0.43,1.17,-0.10,-0.54,-1.03,10.39,97.7,-105
3352,138.294,-0.49,1.15,-0.15,-0.49,-1.03,10.37,97.7,-105
3353,138.395,-0.44,1.19,-0.15,-0.49,-1.08,10.35,97.7,-105
3354,138.478,-0.37,1.21,-0.10,-0.54,-1.08,11.00,97.8,-107
3355,138.562,-0.39,1.17,-0.10,-0.54,-1.03,11.00,97.8,-107
3356,138.645,-0.39,1.15,-0.15,-0.59,-0.98,11.00,97.8,-107
3357,138.729,-0.39,1.21,-0.05,-0.54,-1.08,10.46,97.8,-107
3358,138.813,-0.48,1.23,-0.10,-0.59,-1.08,10.58,97.8,-107
3359,138.896,-0.48,1.19,-0.10,-0.49,-1.08,10.70,97.8,-107
3360,138.980,-0.32,1.17,-0.15,-0.54,-1.03,11.49,97.9,-107
3361,139.063,-0.32,1.12,-0.10,-0.44,-1.03,11.62,97.9,-107
3362,139.147,-0.33,1.19,-0.10,-0.49,-1.08,11.76,97.9,-107
3363,139.231,-0.33,1.19,-0.10,-0.49,-1.08,11.07,97.9,-107
3364,139.314,-0.39,1.10,-0.10,-0.49,-0.98,11.07,97.9,-107
3365,139.398,-0.39,1.17,-0.10,-0.54,-1.03,11.07,97.9,-107
3366,139.481,-0.37,1.19,-0.15,-0.49,-1.08,11.76,98.0,-111
3367,139.565,-0.45,1.13,-0.15,-0.54,-0.98,11.76,98.0,-111
3368,139.648,-0.39,1.19,-0.05,-0.49,-1.08,11.76,98.0,-111
3369,139.732,-0.39,1.19,-0.05,-0.49,-1.08,11.07,98.0,-111
3370,139.816,-0.42,1.23,-0.10,-0.49,-1.13,11.07,98.0,-111
3371,139.899,-0.36,1.19,-0.10,-0.59,-1.03,11.07,98.0,-111
3372,139.999,-0.33,1.19,-0.10,-0.59,-1.03,11.74,98.2,-108
3373,140.100,-0.33,1.15,-0.15,-0.49,-1.03,11.71,98.2,-108
3374,140.200,-0.34,1.13,-0.15,-0.54,-0.98,11.69,98.2,-108
3375,140.300,-0.34,1.17,-0.15,-0.54,-1.03,11.00,98.2,-108
3376,140.400,-0.35,1.19,-0.15,-0.49,-1.08,11.00,98.2,-108
3377,140.501,-0.40,1.15,-0.15,-0.49,-1.03,11.00,98.2,-108
3378,140.584,-0.34,1.19,-0.10,-0.49,-1.08,11.71,98.3,-111
3379,140.668,-0.31,1.16,-0.05,-0.54,-1.03,11.74,98.3,-111
3380,140.751,-0.28,1.19,-0.10,-0.49,-1.08,11.76,98.3,-111
3381,140.835,-0.28,1.13,-0.15,-0.54,-0.98,11.07,98.3,-111
3382,140.919,-0.33,1.21,-0.10,-0.54,-1.08,11.07,98.3,-111
3383,141.002,-0.31,1.13,-0.15,-0.54,-0.98,11.07,98.3,-111
3384,141.086,-0.29,1.21,-0.10,-0.54,-1.08,11.76,98.4,-111
3385,141.169,-0.32,1.13,-0.15,-0.54,-0.98,11.76,98.4,-111
3386,141.253,-0.33,1.19,-0.05,-0.59,-1.03,11.76,98.4,-111
3387,141.337,-0.33,1.22,-0.15,-0.64,-1.03,11.07,98.4,-111
3388,141.420,-0.44,1.21,-0.10,-0.54,-1.08,11.07,98.4,-111
3389,141.504,-0.56,1.21,-0.10,-0.54,-1.08,11.07,98.4,-111
3390,141.587,-0.50,1.17,-0.10,-0.54,-1.03,11.76,98.5,-105
3391,141.671,-0.49,1.21,-0.10,-0.54,-1.08,11.76,98.5,-105
3392,141.755,-0.46,1.21,-0.05,-0.54,-1.08,11.76,98.5,-105
3393,141.838,-0.46,1.17,-0.15,-0.54,-1.03,11.07,98.5,-105
3394,141.922,-0.44,1.17,-0.15,-0.54,-1.03,11.07,98.5,-105
3395,142.005,-0.48,1.25,-0.10,-0.54,-1.13,11.07,98.5,-105
3396,142.089,-0.41,1.14,-0.10,-0.49,-1.03,11.76,98.6,-114
3397,142.172,-0.32,1.21,-0.05,-0.54,-1.08,11.76,98.6,-114
3398,142.256,-0.39,1.19,-0.10,-0.49,-1.08,11.76,98.6,-114
3399,142.340,-0.39,1.17,-0.10,-0.54,-1.03,11.09,98.6,-114
3400,142.423,-0.38,1.19,-0.15,-0.59,-1.03,11.11,98.6,-114
3401,142.507,-0.34,1.17,-0.15,-0.44,-1.08,11.13,98.6,-114
3402,142.607,-0.24,1.21,-0.10,-0.54,-1.08,11.83,98.6,-106
3403,142.707,-0.30,1.14,-0.10,-0.49,-1.03,11.83,98.6,-106
3404,142.807,-0.36,1.17,-0.15,-0.54,-1.03,11.83,98.6,-106
3405,142.908,-0.36,1.17,-0.15,-0.54,-1.03,11.11,98.6,-106
3406,143.008,-0.38,1.25,-0.10,-0.54,-1.13,11.09,98.6,-106
3407,143.108,-0.42,1.21,-0.05,-0.54,-1.08,11.07,98.6,-106
3414,143.275,-0.42,1.23,-0.10,-0.59,-1.08,11.65,93.3,-108
3415,143.442,-0.48,1.24,-0.15,-0.59,-1.08,11.54,93.3,-108
3416,143.608,-0.49,1.17,-0.10,-0.54,-1.03,11.43,93.3,-108
3417,143.775,-0.49,1.14,-0.20,-0.54,-0.98,10.66,93.3,-108
3418,143.942,-0.47,1.19,-0.10,-0.59,-1.03,10.56,93.3,-108
3419,144.109,-0.46,1.17,-0.10,-0.54,-1.03,10.46,93.3,-108
3420,144.192,-0.39,1.21,-0.10,-0.54,-1.08,11.12,93.7,-101
3421,144.276,-0.42,1.14,-0.10,-0.49,-1.03,11.12,93.7,-101
3422,144.359,-0.45,1.21,-0.10,-0.54,-1.08,11.12,93.7,-101
3423,144.443,-0.45,1.23,-0.05,-0.59,-1.08,10.46,93.7,-101
3424,144.527,-0.51,1.12,-0.10,-0.54,-0.98,10.46,93.7,-101
3425,144.610,-0.44,1.21,-0.10,-0.54,-1.08,10.46,93.7,-101
3426,144.711,-0.45,1.17,-0.10,-0.54,-1.03,11.10,94.0,-105
3427,144.811,-0.40,1.19,-0.15,-0.49,-1.08,11.08,94.0,-105
3428,144.911,-0.42,1.17,-0.15,-0.54,-1.03,11.06,94.0,-105
3429,145.011,-0.42,1.25,-0.10,-0.54,-1.13,10.41,94.0,-105
3430,145.111,-0.39,1.23,-0.10,-0.59,-1.08,10.41,94.0,-105
3431,145.212,-0.34,1.26,-0.20,-0.54,-1.13,10.41,94.0,-105
3432,145.295,-0.33,1.25,0.00,-0.54,-1.13,11.08,94.4,-102
3433,145.379,-0.30,1.27,0.05,-0.59,-1.13,11.10,94.4,-102
3434,145.462,-0.30,1.29,0.00,-0.64,-1.13,11.12,94.4,-102
3435,145.546,-0.30,1.27,0.00,-0.34,-1.22,10.46,94.4,-102
3436,145.630,-0.29,1.32,-0.20,-0.44,-1.22,10.46,94.4,-102
3437,145.713,-0.31,1.28,-0.15,-0.34,-1.22,10.46,94.4,-102
3438,145.797,-0.27,1.25,0.10,0.24,-1.22,11.12,94.7,-100
3439,145.880,-0.34,1.30,0.15,0.20,-1.27,11.12,94.7,-100
3440,145.964,-0.42,1.24,0.10,0.20,-1.22,11.12,94.7,-100
3441,146.048,-0.42,1.26,0.20,0.20,-1.22,10.46,94.7,-100
3442,146.131,-0.40,1.32,0.15,0.29,-1.27,10.46,94.7,-100
3443,146.215,-0.34,1.38,0.20,0.34,-1.32,10.46,94.7,-100
3444,146.298,-0.32,1.32,0.10,0.49,-1.22,11.12,95.0,-97
3445,146.382,-0.31,1.40,0.24,0.39,-1.32,11.12,95.0,-97
3446,146.466,-0.24,1.40,0.10,0.44,-1.32,11.12,95.0,-97
3447,146.549,-0.24,1.38,0.10,0.39,-1.32,10.46,95.0,-97
3448,146.633,-0.22,1.44,0.10,0.44,-1.37,10.46,95.0,-97
3449,146.716,-0.21,1.44,0.05,0.44,-1.37,10.46,95.0,-97
3450,146.816,-0.10,1.36,-0.34,0.69,-1.13,11.10,95.3,-95
3451,146.917,-0.07,1.29,-0.29,0.64,-1.08,11.08,95.3,-95
3452,147.017,0.01,1.22,-0.34,0.64,-0.98,11.06,95.3,-95
3453,147.117,0.01,1.21,-0.49,0.59,-0.93,10.41,95.3,-95
3454,147.217,0.10,1.33,-0.54,0.64,-1.03,10.41,95.3,-95
3455,147.318,0.21,1.27,-0.49,0.64,-0.98,10.41,95.3,-95
3456,147.401,0.23,0.95,-0.83,0.24,-0.39,11.08,95.6,-87
3457,147.485,0.30,0.92,-0.83,0.20,-0.34,11.10,95.6,-87
3458,147.568,0.40,0.99,-0.88,0.44,0.05,11.12,95.6,-87
3459,147.652,0.40,1.09,-1.03,0.24,-0.24,10.46,95.6,-87
3460,147.736,0.41,1.09,-1.03,0.24,-0.24,10.46,95.6,-87
3461,147.819,0.41,1.10,-1.03,0.29,-0.24,10.46,95.6,-87
3462,147.903,0.55,1.25,-1.03,0.39,-0.59,11.12,95.9,-90
3463,147.986,0.51,1.26,-1.03,0.34,-0.64,11.12,95.9,-90
3464,148.070,0.52,1.36,-1.08,0.39,-0.74,11.12,95.9,-90
3465,148.154,0.52,1.42,-1.13,0.44,-0.74,10.46,95.9,-90
3466,148.237,0.54,1.42,-1.18,0.39,-0.69,10.46,95.9,-90
3467,148.321,0.50,1.34,-1.08,0.39,-0.69,10.46,95.9,-90
3468,148.404,0.62,1.20,-0.83,0.64,0.59,11.12,96.1,-89
3469,148.488,0.58,1.08,-0.78,0.64,0.39,11.12,96.1,-89
3470,148.571,0.59,1.01,-0.69,0.74,0.10,11.12,96.1,-89
3471,148.655,0.59,0.94,-0.64,0.69,0.10,10.46,96.1,-89
3472,148.739,0.49,0.89,-0.54,0.69,0.15,10.46,96.1,-89
3473,148.822,0.49,0.92,-0.54,0.74,0.10,10.46,96.1,-89
3474,148.922,0.65,1.01,-0.59,0.24,-0.78,11.10,96.3,-103
3475,149.023,0.63,0.97,-0.54,0.20,-0.78,11.08,96.3,-103
3476,149.123,0.60,0.95,-0.74,0.15,-0.59,11.06,96.3,-103
3477,149.223,0.60,1.05,-0.78,0.15,-0.69,10.41,96.3,-103
3478,149.323,0.59,1.25,-0.69,0.20,-1.03,10.41,96.3,-103
3479,149.424,0.53,1.17,-0.49,0.24,-1.03,10.41,96.3,-103
3480,149.507,0.60,1.35,-0.24,0.39,-1.27,11.08,96.5,-111
3481,149.591,0.49,1.35,-0.24,0.39,-1.27,11.10,96.5,-111
3482,149.674,0.35,1.51,-0.15,0.49,-1.42,11.12,96.5,-111
3483,149.758,0.35,1.55,-0.05,0.49,-1.47,10.46,96.5,-111
3484,149.842,0.25,1.72,-0.29,0.64,-1.57,10.46,96.5,-111
3485,149.925,0.08,1.76,-0.29,0.64,-1.62,10.46,96.5,-111
3486,150.009,0.07,1.38,-0.15,0.78,-1.13,11.12,96.7,-121
3487,150.092,-0.08,1.41,-0.15,0.83,-1.13,11.12,96.7,-121
3488,150.176,-0.19,1.38,-0.15,0.78,-1.13,11.12,96.7,-121
3489,150.260,-0.19,1.34,-0.15,0.78,-1.08,10.46,96.7,-121
3490,150.343,-0.34,1.38,-0.15,0.78,-1.13,10.46,96.7,-121
3491,150.427,-0.31,1.37,-0.15,0.83,-1.08,10.46,96.7,-121
3498,150.610,-0.26,1.42,-0.15,0.78,-1.18,11.00,91.6,-119
3499,150.793,-0.24,1.41,-0.15,0.83,-1.13,10.88,91.6,-119
3500,150.977,-0.33,1.38,-0.15,0.78,-1.13,10.77,91.6,-119
3501,151.160,-0.33,1.41,-0.15,0.83,-1.13,10.03,91.6,-119
3502,151.344,-0.37,1.39,-0.20,0.78,-1.13,9.92,91.6,-119
3503,151.527,-0.28,1.34,-0.15,0.78,-1.08,9.82,91.6,-119
3504,151.611,-0.25,1.39,-0.20,0.78,-1.13,10.44,92.1,-115
3505,151.694,-0.32,1.39,-0.10,0.74,-1.18,10.44,92.1,-115
3506,151.778,-0.39,1.38,-0.15,0.78,-1.13,10.44,92.1,-115
3507,151.861,-0.39,1.38,-0.15,0.78,-1.13,9.82,92.1,-115
3508,151.945,-0.41,1.42,-0.15,0.78,-1.18,9.82,92.1,-115
3509,152.029,-0.33,1.43,-0.20,0.78,-1.18,9.82,92.1,-115
3510,152.112,-0.32,1.46,-0.15,0.78,-1.22,10.44,92.6,-111
3511,152.196,-0.31,1.38,-0.15,0.78,-1.13,10.44,92.6,-111
3512,152.279,-0.32,1.39,-0.20,0.78,-1.13,10.44,92.6,-111
3513,152.363,-0.32,1.36,-0.20,0.74,-1.13,9.84,92.6,-111
3514,152.447,-0.33,1.34,-0.15,0.78,-1.08,9.86,92.6,-111
3515,152.530,-0.33,1.41,-0.20,0.83,-1.13,9.87,92.6,-111
3516,152.614,-0.38,1.45,-0.20,0.83,-1.18,10.51,93.0,-113
3517,152.697,-0.34,1.39,-0.20,0.78,-1.13,10.53,93.0,-113
3518,152.781,-0.32,1.31,-0.15,0.74,-1.08,10.55,93.0,-113
3519,152.864,-0.32,1.39,-0.20,0.78,-1.13,10.01,93.0,-113
3520,152.948,-0.43,1.32,-0.20,0.74,-1.08,10.10,93.0,-113
3521,153.032,-0.37,1.37,-0.15,0.83,-1.08,10.19,93.0,-113
3522,153.132,-0.36,1.37,-0.15,0.83,-1.08,10.90,93.4,-106
3523,153.232,-0.41,1.15,-0.15,0.59,-0.98,10.98,93.4,-106
3524,153.332,-0.39,1.39,-0.24,0.78,-1.13,11.06,93.4,-106
3525,153.433,-0.39,1.38,-0.15,0.78,-1.13,10.39,93.4,-106
3526,153.533,-0.43,1.40,-0.20,0.74,-1.18,10.37,93.4,-106
3527,153.633,-0.36,1.46,-0.10,0.78,-1.22,10.35,93.4,-106
3540,154.133,-0.32,1.03,0.00,1.03,0.10,10.53,83.8,-109
3541,154.333,-0.28,0.99,-0.05,0.98,0.15,10.40,83.8,-109
3542,154.533,-0.29,1.08,0.00,1.08,0.10,10.28,83.8,-109
3543,154.733,-0.29,0.99,-0.05,0.98,0.10,9.58,83.8,-109
3544,154.933,-0.36,1.03,0.05,1.03,0.05,9.48,83.8,-109
3545,155.133,-0.36,0.98,0.00,0.98,0.10,9.39,83.8,-109
3546,155.233,-0.30,1.08,0.00,1.08,0.10,9.98,84.7,-108
3547,155.333,-0.33,1.08,-0.05,1.08,0.10,9.98,84.7,-108
3548,155.433,-0.40,0.99,0.00,0.98,0.15,9.98,84.7,-108
3549,155.533,-0.40,1.13,-0.05,1.13,0.10,9.38,84.7,-108
3550,155.634,-0.38,1.03,0.00,1.03,0.10,9.36,84.7,-108
3551,155.734,-0.37,1.09,0.00,1.08,0.15,9.35,84.7,-108
3552,155.817,-0.27,0.98,0.00,0.98,0.10,9.93,85.6,-109
3553,155.901,-0.29,0.94,0.00,0.93,0.10,9.93,85.6,-109
3554,155.985,-0.30,1.03,-0.05,1.03,0.10,9.93,85.6,-109
3555,156.068,-0.30,1.03,0.00,1.03,0.10,9.35,85.6,-109
3556,156.152,-0.40,1.04,0.00,1.03,0.15,9.35,85.6,-109
3557,156.235,-0.40,1.03,0.00,1.03,0.10,9.35,85.6,-109
3558,156.319,-0.36,1.08,0.00,1.08,0.10,9.93,86.5,-106
3559,156.403,-0.40,1.08,0.00,1.08,0.05,9.93,86.5,-106
3560,156.486,-0.38,1.04,0.00,1.03,0.15,9.93,86.5,-106
3561,156.570,-0.38,1.03,0.00,1.03,0.05,9.35,86.5,-106
3562,156.653,-0.38,1.04,-0.05,1.03,0.15,9.35,86.5,-106
3563,156.737,-0.44,1.03,-0.05,1.03,0.10,9.35,86.5,-106
3564,156.821,-0.34,1.13,-0.05,1.13,0.10,9.93,87.3,-105
3565,156.904,-0.33,1.10,0.00,1.08,0.20,9.93,87.3,-105
3566,156.988,-0.38,1.18,0.00,1.18,0.15,9.93,87.3,-105
3567,157.071,-0.38,1.18,0.05,1.18,0.00,9.36,87.3,-105
3568,157.155,-0.43,1.04,0.10,1.03,0.10,9.38,87.3,-105
3569,157.238,-0.38,1.09,0.05,1.08,0.15,9.39,87.3,-105
3570,157.322,-0.23,0.90,0.39,0.78,0.20,10.00,88.0,-107
3571,157.406,-0.25,0.83,0.39,0.74,0.00,10.01,88.0,-107
3572,157.489,-0.23,0.80,0.49,0.64,0.00,10.03,88.0,-107
3573,157.573,-0.23,0.80,0.49,0.64,0.00,9.44,88.0,-107
3574,157.656,-0.22,0.79,0.39,0.69,0.05,9.44,88.0,-107
3575,157.740,-0.27,0.83,0.39,0.74,0.05,9.44,88.0,-107
3576,157.840,-0.20,0.81,0.39,0.69,0.20,10.01,88.7,-103
3577,157.940,-0.20,0.91,0.49,0.74,0.20,10.00,88.7,-103
3578,158.041,-0.15,0.83,0.34,0.74,0.20,9.98,88.7,-103
3579,158.141,-0.15,0.88,0.44,0.74,0.20,9.38,88.7,-103
3580,158.241,-0.23,0.90,0.39,0.78,0.20,9.36,88.7,-103
3581,158.341,-0.28,0.87,0.44,0.69,0.29,9.35,88.7,-103
3582,158.425,-0.28,0.81,0.24,0.69,0.34,9.93,89.4,-103
3583,158.509,-0.30,0.87,0.29,0.78,0.24,9.93,89.4,-103
3584,158.592,-0.33,0.75,0.29,0.69,0.10,9.93,89.4,-103
3585,158.676,-0.33,0.91,0.34,0.83,0.15,9.35,89.4,-103
3586,158.759,-0.39,1.01,0.20,0.98,0.15,9.35,89.4,-103
3587,158.843,-0.36,0.93,0.15,0.88,0.24,9.35,89.4,-103
3588,158.926,-0.35,0.73,0.20,0.64,0.29,9.93,90.0,-111
3589,159.010,-0.43,0.82,0.10,0.34,0.74,9.93,90.0,-111
3590,159.094,-0.39,0.83,0.44,0.59,0.39,9.93,90.0,-111
3591,159.177,-0.39,0.56,0.20,0.34,0.39,9.36,90.0,-111
3592,159.261,-0.39,0.76,0.24,0.64,0.34,9.38,90.0,-111
3593,159.344,-0.29,0.73,0.24,0.24,0.64,9.39,90.0,-111
3594,159.428,-0.27,0.50,0.44,0.00,0.24,10.00,90.6,-103
3595,159.512,-0.25,0.51,0.49,0.00,0.15,10.01,90.6,-103
3596,159.595,-0.30,0.35,0.24,0.00,0.24,10.03,90.6,-103
3597,159.679,-0.30,0.22,0.20,0.05,0.10,9.44,90.6,-103
3598,159.762,-0.36,0.32,0.24,0.05,0.20,9.44,90.6,-103
3599,159.846,-0.28,0.45,0.29,0.05,0.34,9.44,90.6,-103
3600,159.946,-0.25,0.84,0.24,0.78,0.20,10.01,91.1,-108
3601,160.046,-0.25,0.83,0.34,0.74,0.20,10.00,91.1,-108
3602,160.147,-0.24,0.73,0.39,0.59,0.20,9.98,91.1,-108
3603,160.247,-0.24,0.69,0.29,0.49,0.39,9.38,91.1,-108
3604,160.347,-0.21,0.75,0.34,0.54,0.39,9.36,91.1,-108
3605,160.447,-0.16,0.69,0.34,0.49,0.34,9.35,91.1,-108
3606,160.531,-0.15,0.22,0.10,0.20,0.05,9.93,91.7,-102
3607,160.614,-0.09,0.52,0.20,0.34,0.34,9.93,91.7,-102
3608,160.698,-0.12,0.86,0.29,0.64,0.49,9.93,91.7,-102
3609,160.781,-0.12,0.93,0.29,0.74,0.49,9.44,91.7,-102
3610,160.864,-0.16,0.73,0.29,0.54,0.39,9.53,91.7,-102
3611,160.948,-0.07,0.65,0.20,0.44,0.44,9.63,91.7,-102
3612,161.031,0.00,0.76,-0.05,0.54,0.54,10.33,92.1,-103
3613,161.115,-0.06,0.71,0.05,0.59,0.39,10.44,92.1,-103
3614,161.199,-0.02,0.78,0.05,0.64,0.44,10.55,92.1,-103
3615,161.282,-0.02,0.83,0.00,0.59,0.59,9.93,92.1,-103
3616,161.366,-0.07,0.82,-0.15,0.49,0.64,9.93,92.1,-103
3617,161.449,0.00,0.66,-0.15,0.34,0.54,9.93,92.1,-103
3618,161.533,0.01,0.89,-0.24,0.74,0.44,10.55,92.6,-108
3619,161.616,0.00,0.97,-0.34,0.74,0.54,10.55,92.6,-108
3620,161.700,0.06,0.85,-0.29,0.59,0.54,10.55,92.6,-108
3621,161.784,0.06,0.91,-0.44,0.54,0.59,9.93,92.6,-108
3622,161.867,0.05,0.83,-0.39,0.44,0.59,9.93,92.6,-108
3623,161.951,0.02,0.67,-0.24,0.44,0.44,9.93,92.6,-108
3624,162.051,0.01,0.66,-0.20,0.39,0.49,10.53,93.0,-108
3625,162.151,0.02,0.69,-0.29,0.39,0.49,10.51,93.0,-108
3626,162.252,0.02,0.86,-0.39,0.59,0.49,10.49,93.0,-108
3627,162.352,0.02,0.95,-0.39,0.64,0.59,9.86,93.0,-108
3628,162.452,-0.01,1.00,-0.44,0.64,0.64,9.84,93.0,-108
3629,162.552,-0.01,1.00,-0.49,0.64,0.59,9.82,93.0,-108
3636,162.719,-0.06,0.98,-0.44,0.69,0.54,10.35,88.3,-97
3637,162.886,-0.06,0.92,-0.44,0.64,0.49,10.26,88.3,-97
3638,163.052,-0.04,0.92,-0.44,0.64,0.49,10.18,88.3,-97
3639,163.219,-0.04,0.96,-0.54,0.69,0.39,9.52,88.3,-97
3640,163.386,-0.09,1.03,-0.59,0.69,0.49,9.45,88.3,-97
3641,163.553,-0.05,0.99,-0.49,0.74,0.44,9.39,88.3,-97
3642,163.636,-0.05,0.91,-0.10,0.64,0.64,10.00,89.0,-89
3643,163.720,-0.09,0.75,0.05,0.64,0.39,10.01,89.0,-89
3644,163.803,-0.01,0.77,0.00,0.74,0.24,10.03,89.0,-89
3645,163.887,-0.01,0.82,0.00,0.78,0.24,9.84,89.0,-89
3646,163.971,0.02,1.06,-0.10,1.03,0.24,9.96,89.0,-89
3647,164.054,0.19,0.98,-0.05,0.93,0.29,10.08,89.0,-89
3648,164.154,0.33,0.82,0.24,0.78,0.00,10.83,89.6,-89
3649,164.255,0.38,0.86,0.20,0.83,-0.05,10.94,89.6,-89
3650,164.355,0.40,0.90,0.15,0.88,-0.05,11.06,89.6,-89
3651,164.455,0.40,0.91,0.20,0.88,-0.10,10.41,89.6,-89
3652,164.555,0.44,0.92,0.24,0.88,-0.05,10.41,89.6,-89
3653,164.655,0.48,0.87,0.24,0.83,-0.05,10.41,89.6,-89
3654,164.739,0.47,1.08,-0.05,1.08,-0.05,11.08,90.2,-87
3655,164.823,0.48,1.23,0.05,1.22,-0.15,11.10,90.2,-87
3656,164.906,0.55,1.13,0.10,1.13,-0.05,11.12,90.2,-87
3657,164.990,0.55,0.99,0.05,0.98,-0.15,10.47,90.2,-87
3658,165.073,0.50,0.84,0.00,0.83,-0.10,10.47,90.2,-87
3659,165.157,0.56,0.94,0.00,0.93,-0.15,10.47,90.2,-87
3660,165.240,0.69,1.23,0.10,1.22,-0.05,11.12,90.8,-86
3661,165.324,0.69,1.24,0.20,1.22,-0.10,11.12,90.8,-86
3662,165.408,0.72,1.09,0.10,1.08,-0.10,11.12,90.8,-86
3663,165.491,0.72,0.99,0.05,0.98,-0.10,10.47,90.8,-86
3664,165.575,0.71,0.98,0.00,0.98,-0.05,10.47,90.8,-86
3665,165.658,0.61,1.04,0.05,1.03,-0.15,10.47,90.8,-86
3666,165.742,0.80,1.05,0.00,1.03,0.20,11.12,91.4,-86
3667,165.825,0.76,1.03,0.00,1.03,0.10,11.12,91.4,-86
3668,165.909,0.79,1.03,0.05,1.03,0.00,11.12,91.4,-86
3669,165.993,0.79,0.93,0.00,0.93,0.05,10.47,91.4,-86
3670,166.076,0.73,0.93,0.00,0.93,-0.05,10.47,91.4,-86
3671,166.160,0.74,0.90,0.05,0.88,-0.15,10.47,91.4,-86
3672,166.260,0.77,1.14,0.05,1.13,0.20,11.10,91.9,-86
3673,166.360,0.72,1.10,0.00,1.08,0.20,11.08,91.9,-86
3674,166.460,0.70,1.19,0.05,1.18,0.15,11.06,91.9,-86
3675,166.561,0.70,1.18,0.10,1.18,0.10,10.39,91.9,-86
3676,166.661,0.60,1.18,0.05,1.18,0.05,10.37,91.9,-86
3677,166.761,0.60,1.23,0.00,1.22,-0.05,10.35,91.9,-86
3678,166.845,0.75,1.12,-0.05,1.08,0.29,11.00,92.3,-85
3679,166.928,0.72,1.08,-0.15,1.03,0.29,11.00,92.3,-85
3680,167.012,0.68,1.15,-0.10,1.13,0.20,11.00,92.3,-85
3681,167.095,0.68,1.23,-0.05,1.22,0.10,10.37,92.3,-85
3682,167.179,0.64,1.28,0.05,1.27,0.05,10.39,92.3,-85
3683,167.263,0.68,1.08,0.10,1.08,-0.05,10.41,92.3,-85
3684,167.346,0.70,1.03,0.00,1.03,0.00,11.08,92.8,-83
3685,167.430,0.69,0.98,0.00,0.98,0.00,11.10,92.8,-83
3686,167.513,0.76,1.08,0.05,1.08,-0.05,11.12,92.8,-83
3687,167.597,0.76,1.18,0.10,1.18,-0.05,10.47,92.8,-83
3688,167.680,0.69,1.23,0.10,1.22,-0.05,10.47,92.8,-83
3689,167.764,0.66,1.10,0.15,1.08,-0.15,10.47,92.8,-83
3690,167.847,0.69,1.23,-0.05,1.22,0.15,11.12,93.2,-84
3691,167.931,0.62,1.25,-0.15,1.22,0.20,11.12,93.2,-84
3692,168.014,0.64,1.20,-0.20,1.18,0.15,11.12,93.2,-84
3693,168.098,0.64,1.31,-0.15,1.27,0.24,10.47,93.2,-84
3694,168.181,0.60,1.18,0.00,1.18,0.10,10.47,93.2,-84
3695,168.264,0.73,1.27,0.05,1.27,0.00,10.47,93.2,-84
3696,168.348,0.72,1.38,0.15,1.37,-0.05,11.12,93.6,-83
3697,168.432,0.66,1.28,0.05,1.27,-0.05,11.12,93.6,-83
3698,168.515,0.60,1.13,-0.05,1.13,-0.05,11.12,93.6,-83
3699,168.599,0.60,1.14,-0.15,1.13,0.00,10.47,93.6,-83
3700,168.682,0.59,1.23,-0.10,1.22,0.00,10.47,93.6,-83
3701,168.766,0.50,1.23,0.00,1.22,-0.10,10.47,93.6,-83
3702,168.866,0.57,1.37,0.34,1.32,0.00,11.10,94.0,-84
3703,168.966,0.58,1.37,0.34,1.32,0.00,11.08,94.0,-84
3704,169.067,0.63,1.19,0.15,1.18,0.10,11.06,94.0,-84
3705,169.167,0.63,1.09,0.00,1.08,0.15,10.41,94.0,-84
3706,169.267,0.59,1.13,-0.05,1.13,0.10,10.41,94.0,-84
3707,169.367,0.54,1.08,0.00,1.08,0.05,10.41,94.0,-84
3708,169.451,0.57,1.50,0.29,1.47,0.05,11.08,94.3,-83
3709,169.534,0.65,1.41,0.29,1.37,0.10,11.10,94.3,-83
3710,169.618,0.57,1.11,0.24,1.08,0.15,11.12,94.3,-83
3711,169.702,0.57,0.99,0.10,0.98,0.10,10.47,94.3,-83
3712,169.785,0.56,0.99,0.05,0.98,0.10,10.47,94.3,-83
3713,169.869,0.63,1.08,0.05,1.08,0.10,10.47,94.3,-83
3714,169.952,0.76,1.23,-0.05,1.22,-0.05,11.12,94.7,-84
3715,170.036,0.75,1.28,-0.05,1.27,-0.10,11.12,94.7,-84
3716,170.119,0.78,1.34,0.20,1.32,-0.05,11.12,94.7,-84
3717,170.203,0.78,1.38,0.15,1.37,-0.05,10.47,94.7,-84
3718,170.287,0.74,1.19,0.15,1.18,0.05,10.47,94.7,-84
3719,170.370,0.67,0.98,0.10,0.98,0.00,10.47,94.7,-84
3720,170.454,0.70,1.30,0.15,1.27,-0.20,11.12,95.0,-83
3721,170.537,0.68,1.28,0.05,1.27,-0.05,11.12,95.0,-83
3722,170.621,0.68,1.42,-0.10,1.42,0.00,11.12,95.0,-83
3723,170.704,0.68,1.52,-0.10,1.52,-0.05,10.47,95.0,-83
3724,170.788,0.70,1.62,0.05,1.62,0.00,10.47,95.0,-83
3725,170.872,0.70,1.53,0.10,1.52,-0.10,10.47,95.0,-83
3726,170.972,0.68,1.03,0.05,1.03,0.00,11.10,95.3,-86
3727,171.072,0.62,0.99,0.05,0.98,0.10,11.08,95.3,-86
3728,171.172,0.64,1.04,0.00,1.03,0.15,11.06,95.3,-86
3729,171.272,0.64,1.14,0.00,1.13,0.15,10.41,95.3,-86
3730,171.373,0.59,1.30,0.20,1.27,0.15,10.41,95.3,-86
3731,171.473,0.60,1.31,0.24,1.27,0.15,10.41,95.3,-86
3732,171.556,0.59,1.19,0.20,1.18,-0.05,11.08,95.5,-85
3733,171.640,0.66,1.11,0.24,1.08,-0.05,11.10,95.5,-85
3734,171.724,0.76,1.26,0.24,1.22,0.15,11.12,95.5,-85
3735,171.807,0.76,1.42,0.34,1.37,0.10,10.56,95.5,-85
3736,171.891,0.74,1.49,0.54,1.37,0.20,10.66,95.5,-85
3737,171.974,0.65,1.41,0.54,1.27,0.29,10.76,95.5,-85
3738,172.058,0.78,1.06,0.24,1.03,0.00,11.54,95.8,-85
3739,172.141,0.75,1.00,0.20,0.98,-0.05,11.65,95.8,-85
3740,172.225,0.74,0.84,0.10,0.83,0.05,11.76,95.8,-85
3741,172.309,0.74,1.03,0.10,1.03,0.05,11.07,95.8,-85
3742,172.392,0.60,1.24,0.20,1.22,0.00,11.07,95.8,-85
3743,172.476,0.64,1.36,0.29,1.32,-0.10,11.07,95.8,-85
3744,172.559,0.75,1.05,0.20,1.03,0.05,11.76,96.1,-95
3745,172.643,0.74,1.05,0.15,1.03,0.15,11.76,96.1,-95
3746,172.727,0.77,1.07,0.00,1.03,0.29,11.76,96.1,-95
3747,172.810,0.77,1.12,-0.20,1.03,0.39,11.09,96.1,-95
3748,172.894,0.73,1.12,-0.20,1.03,0.39,11.11,96.1,-95
3749,172.977,0.78,1.06,-0.10,0.98,0.39,11.13,96.1,-95
3750,173.077,0.74,1.04,-0.34,0.98,0.05,11.83,96.3,-96
3751,173.178,0.72,1.06,-0.39,0.98,0.10,11.83,96.3,-96
3752,173.278,0.73,1.06,-0.39,0.98,0.05,11.83,96.3,-96
3753,173.378,0.73,1.07,-0.29,1.03,0.05,11.11,96.3,-96
3754,173.478,0.67,1.09,-0.34,1.03,0.05,11.09,96.3,-96
3755,173.579,0.68,1.04,-0.34,0.98,0.05,11.07,96.3,-96
3756,173.662,0.74,1.00,-0.20,0.98,0.00,11.76,96.5,-97
3757,173.746,0.73,1.07,-0.29,1.03,0.00,11.76,96.5,-97
3758,173.829,0.75,1.11,-0.24,1.08,-0.05,11.76,96.5,-97
3759,173.913,0.75,1.12,-0.29,1.08,-0.10,11.07,96.5,-97
3760,173.996,0.74,1.12,-0.29,1.08,0.00,11.07,96.5,-97
3761,174.080,0.75,0.79,-0.29,0.74,0.05,11.07,96.5,-97
3762,174.164,0.79,0.99,-0.15,0.98,0.05,11.76,96.7,-87
3763,174.247,0.78,1.00,-0.20,0.98,0.10,11.76,96.7,-87
3764,174.331,0.75,0.96,-0.20,0.93,0.10,11.76,96.7,-87
3765,174.414,0.75,1.10,-0.20,1.08,0.05,11.07,96.7,-87
3766,174.498,0.62,1.10,-0.20,1.08,0.10,11.07,96.7,-87
3767,174.581,0.67,1.18,-0.10,1.18,0.00,11.07,96.7,-87
3768,174.665,0.73,0.93,0.05,0.93,0.05,11.76,96.9,-84
3769,174.749,0.67,0.99,0.05,0.98,0.10,11.76,96.9,-84
3770,174.832,0.74,1.03,0.00,1.03,0.10,11.76,96.9,-84
3771,174.916,0.74,1.08,0.00,1.08,0.10,11.09,96.9,-84
3772,174.999,0.74,1.08,0.00,1.08,0.05,11.11,96.9,-84
3773,175.083,0.73,1.13,0.05,1.13,0.05,11.13,96.9,-84
3774,175.183,0.81,1.09,0.15,1.08,0.00,11.83,97.1,-83
3775,175.283,0.81,1.20,0.20,1.18,0.10,11.83,97.1,-83
3776,175.384,0.78,1.16,0.24,1.13,0.10,11.83,97.1,-83
3777,175.484,0.78,1.12,0.29,1.08,0.10,11.11,97.1,-83
3778,175.584,0.76,1.09,0.15,1.08,0.10,11.09,97.1,-83
3779,175.684,0.77,1.05,0.20,1.03,0.10,11.07,97.1,-83
3780,175.768,0.81,0.99,0.15,0.98,-0.05,11.76,97.3,-82
3781,175.851,0.78,0.99,0.15,0.98,-0.05,11.76,97.3,-82
3782,175.935,0.75,1.01,0.24,0.98,-0.10,11.76,97.3,-82
3783,176.018,0.75,1.12,0.29,1.08,-0.05,11.07,97.3,-82
3784,176.102,0.78,1.11,0.24,1.08,0.05,11.07,97.3,-82
3785,176.186,0.79,1.20,0.24,1.18,0.00,11.07,97.3,-82
3786,176.269,0.82,0.95,0.00,0.93,-0.20,11.76,97.4,-80
3787,176.353,0.72,0.99,0.00,0.98,-0.15,11.76,97.4,-80
3788,176.436,0.70,1.06,0.05,1.03,-0.24,11.76,97.4,-80
3789,176.520,0.70,1.00,0.05,0.98,-0.20,11.07,97.4,-80
3790,176.604,0.68,1.06,0.05,1.03,-0.24,11.07,97.4,-80
3791,176.687,0.70,1.09,0.10,1.08,-0.15,11.07,97.4,-80
3792,176.770,0.75,0.94,0.05,0.93,-0.15,11.76,97.6,-77
3793,176.854,0.71,1.01,0.00,0.98,-0.24,11.76,97.6,-77
3794,176.937,0.75,0.87,0.05,0.83,-0.24,11.76,97.6,-77
3795,177.021,0.75,0.90,0.05,0.88,-0.20,11.07,97.6,-77
3796,177.104,0.69,0.96,0.05,0.93,-0.24,11.07,97.6,-77
3797,177.188,0.76,0.98,0.10,0.93,-0.29,11.07,97.6,-77
3798,177.288,0.84,1.11,0.00,1.08,-0.24,11.74,97.7,-80
3799,177.388,0.79,1.15,0.15,1.13,-0.20,11.72,97.7,-80
3800,177.488,0.80,1.03,0.10,0.98,-0.29,11.69,97.7,-80
3801,177.588,0.80,0.99,0.05,0.98,-0.15,11.01,97.7,-80
3802,177.689,0.78,0.99,-0.05,0.98,-0.15,11.01,97.7,-80
3803,177.789,0.72,0.89,-0.05,0.88,-0.10,11.01,97.7,-80
3804,177.872,0.74,1.03,-0.05,1.03,0.00,11.72,97.8,-79
3805,177.956,0.73,1.03,-0.05,1.03,0.00,11.74,97.8,-79
3806,178.039,0.73,0.89,0.00,0.88,-0.10,11.76,97.8,-79
3807,178.123,0.73,0.94,0.05,0.93,-0.15,11.07,97.8,-79
3808,178.207,0.69,0.96,0.05,0.93,-0.24,11.07,97.8,-79
3809,178.290,0.73,1.00,0.05,0.98,-0.20,11.07,97.8,-79
3810,178.374,0.76,1.19,0.15,1.18,-0.05,11.76,98.0,-80
3811,178.457,0.76,1.13,0.10,1.13,0.00,11.76,98.0,-80
3812,178.541,0.82,0.88,0.00,0.88,0.00,11.76,98.0,-80
3813,178.624,0.82,0.88,0.00,0.88,0.00,11.07,98.0,-80
3814,178.708,0.80,0.85,0.00,0.83,-0.15,11.07,98.0,-80
3815,178.792,0.89,0.79,-0.05,0.78,-0.10,11.07,98.0,-80
3816,178.875,0.88,1.28,0.05,1.27,0.05,11.76,98.1,-77
3817,178.959,0.89,1.28,0.10,1.27,0.10,11.76,98.1,-77
3818,179.042,0.89,1.08,0.00,1.08,0.00,11.76,98.1,-77
3819,179.126,0.89,1.08,-0.05,1.08,0.00,11.07,98.1,-77
3820,179.210,0.88,1.08,-0.05,1.08,-0.10,11.07,98.1,-77
3821,179.293,0.98,0.98,0.00,0.98,-0.05,11.07,98.1,-77
3822,179.377,0.95,0.93,-0.05,0.93,0.00,11.76,98.2,-77
3823,179.460,0.92,1.03,-0.05,1.03,0.00,11.76,98.2,-77
3824,179.544,0.98,1.19,0.10,1.18,-0.15,11.76,98.2,-77
3825,179.627,0.98,1.28,0.10,1.27,-0.10,11.09,98.2,-77
3826,179.711,0.98,1.28,0.15,1.27,-0.05,11.11,98.2,-77
3827,179.795,0.98,1.23,0.05,1.22,-0.15,11.13,98.2,-77
3828,179.895,0.92,1.39,0.20,1.37,-0.10,11.83,98.3,-76
3829,179.995,0.86,1.20,0.24,1.18,-0.05,11.83,98.3,-76
3830,180.095,0.81,1.03,0.05,1.03,-0.10,11.83,98.3,-76
3831,180.195,0.81,0.98,0.00,0.98,0.00,11.11,98.3,-76
3832,180.296,0.78,1.08,0.00,1.08,0.00,11.09,98.3,-76
3833,180.396,0.73,1.13,0.00,1.13,-0.05,11.07,98.3,-76
3834,180.479,0.78,1.32,0.05,1.32,0.00,11.76,98.4,-79
3835,180.563,0.81,1.43,0.10,1.42,-0.10,11.76,98.4,-79
3836,180.646,0.87,1.39,0.20,1.37,-0.10,11.76,98.4,-79
3837,180.730,0.87,1.25,0.20,1.22,-0.15,11.07,98.4,-79
3838,180.814,0.82,1.08,0.05,1.08,-0.10,11.07,98.4,-79
3839,180.897,0.80,1.09,-0.10,1.08,-0.15,11.07,98.4,-79
3840,180.981,0.75,1.27,0.05,1.27,0.00,11.76,98.5,-76
3841,181.064,0.75,1.43,0.20,1.42,0.00,11.76,98.5,-76
3842,181.148,0.76,1.49,0.24,1.47,0.05,11.76,98.5,-76
3843,181.231,0.76,1.44,0.24,1.42,0.05,11.07,98.5,-76
3844,181.315,0.73,1.03,0.00,1.03,0.00,11.07,98.5,-76
3845,181.399,0.74,0.94,-0.10,0.93,0.05,11.07,98.5,-76
3846,181.482,0.78,1.50,0.29,1.47,-0.10,11.76,98.6,-75
3847,181.566,0.73,1.47,0.39,1.42,0.00,11.76,98.6,-75
3848,181.649,0.72,1.44,0.24,1.42,0.00,11.76,98.6,-75
3849,181.733,0.72,1.30,0.24,1.27,0.00,11.09,98.6,-75
3850,181.816,0.71,1.03,0.10,1.03,-0.05,11.11,98.6,-75
3851,181.900,0.73,1.03,0.05,1.03,-0.05,11.13,98.6,-75
3852,182.000,0.80,1.19,0.05,1.18,-0.15,11.83,98.7,-73
3853,182.100,0.73,1.25,0.00,1.22,-0.24,11.83,98.7,-73
3854,182.201,0.70,1.34,0.00,1.32,-0.20,11.83,98.7,-73
3855,182.301,0.70,1.29,0.05,1.27,-0.20,11.11,98.7,-73
3856,182.401,0.71,1.35,0.10,1.32,-0.24,11.09,98.7,-73
3857,182.501,0.78,1.35,0.15,1.32,-0.20,11.07,98.7,-73
3858,182.585,0.75,1.20,0.20,1.18,-0.10,11.76,98.7,-72
3859,182.668,0.75,1.19,0.05,1.18,-0.15,11.76,98.7,-72
3860,182.752,0.75,1.39,-0.05,1.37,-0.20,11.76,98.7,-72
3861,182.836,0.75,1.47,0.10,1.47,-0.05,11.07,98.7,-72
3862,182.919,0.70,1.55,0.29,1.52,-0.10,11.07,98.7,-72
3863,183.003,0.75,1.44,0.20,1.42,-0.10,11.07,98.7,-72
3864,183.086,0.79,1.27,0.00,1.22,-0.34,11.76,98.8,-72
3865,183.170,0.75,1.27,0.00,1.22,-0.34,11.76,98.8,-72
3866,183.253,0.80,1.37,0.05,1.32,-0.34,11.76,98.8,-72
3867,183.337,0.80,1.59,0.15,1.57,-0.24,11.07,98.8,-72
3868,183.421,0.73,1.47,0.29,1.42,-0.24,11.07,98.8,-72
3869,183.504,0.81,1.25,0.20,1.22,-0.15,11.07,98.8,-72
3870,183.588,0.93,1.16,0.24,1.13,-0.10,11.76,98.9,-73
3871,183.671,0.85,1.15,0.20,1.13,-0.10,11.76,98.9,-73
3872,183.755,0.84,1.20,0.20,1.18,-0.10,11.76,98.9,-73
3873,183.838,0.84,1.24,0.15,1.22,-0.10,11.09,98.9,-73
3874,183.922,0.85,1.33,0.15,1.32,-0.05,11.11,98.9,-73
3875,184.006,0.83,1.34,0.20,1.32,-0.05,11.13,98.9,-73
3876,184.106,0.89,1.13,0.05,1.13,-0.10,11.83,99.0,-72
3877,184.206,0.80,1.13,0.05,1.13,-0.10,11.83,99.0,-72
3878,184.306,0.76,1.08,0.05,1.08,-0.05,11.83,99.0,-72
3879,184.406,0.76,1.13,0.00,1.13,0.05,11.11,99.0,-72
3880,184.507,0.80,1.18,0.10,1.18,0.00,11.09,99.0,-72
3881,184.607,0.81,1.28,0.10,1.27,0.00,11.07,99.0,-72
3882,184.690,0.84,1.02,0.29,0.93,-0.29,11.76,99.0,-72
3883,184.774,0.85,1.03,0.24,0.98,-0.20,11.76,99.0,-72
3884,184.857,0.89,1.06,0.34,0.98,-0.20,11.76,99.0,-72
3885,184.941,0.89,1.09,0.34,1.03,-0.15,11.07,99.0,-72
3886,185.025,0.93,1.16,0.24,1.13,-0.10,11.07,99.0,-72
3887,185.108,0.88,1.11,0.24,1.08,-0.05,11.07,99.0,-72
3888,185.192,0.90,1.00,0.15,0.98,-0.15,11.76,99.1,-70
3889,185.275,0.85,0.88,0.05,0.88,-0.05,11.76,99.1,-70
3890,185.359,0.91,0.88,0.05,0.88,-0.05,11.76,99.1,-70
3891,185.442,0.91,0.94,0.10,0.93,-0.05,11.07,99.1,-70
3892,185.526,0.86,1.06,0.20,1.03,-0.15,11.07,99.1,-70
3893,185.610,0.77,1.06,0.24,1.03,-0.05,11.07,99.1,-70
3894,185.693,0.82,1.04,0.15,1.03,-0.05,11.76,99.1,-69
3895,185.777,0.81,1.11,0.20,1.08,-0.15,11.76,99.1,-69
3896,185.860,0.83,1.07,0.24,1.03,-0.15,11.76,99.1,-69
3897,185.944,0.83,1.01,0.29,0.93,-0.24,11.09,99.1,-69
3898,186.027,0.76,0.91,0.15,0.88,-0.15,11.11,99.1,-69
3899,186.111,0.82,0.85,0.10,0.83,-0.15,11.13,99.1,-69
3900,186.211,0.90,1.10,0.20,1.08,0.05,11.83,99.2,-68
3901,186.311,0.96,1.04,0.15,1.03,0.00,11.83,99.2,-68
3902,186.412,0.98,0.93,0.05,0.93,-0.05,11.83,99.2,-68
3903,186.512,0.98,0.93,0.00,0.93,-0.05,11.11,99.2,-68
3904,186.612,0.91,0.88,0.00,0.88,-0.05,11.09,99.2,-68
3905,186.712,0.96,0.98,0.00,0.98,-0.05,11.07,99.2,-68
3906,186.796,1.02,1.25,0.24,1.22,0.05,11.76,99.2,-66
3907,186.879,1.04,1.31,0.29,1.27,-0.05,11.76,99.2,-66
3908,186.963,1.03,1.03,0.10,1.03,-0.05,11.76,99.2,-66
3909,187.046,1.03,1.04,0.05,1.03,-0.15,11.07,99.2,-66
3910,187.130,0.98,0.89,0.00,0.88,-0.15,11.07,99.2,-66
3911,187.214,0.96,0.89,0.00,0.88,-0.15,11.07,99.2,-66
3912,187.297,0.99,1.32,0.34,1.27,-0.05,11.76,99.3,-66
3913,187.381,1.04,1.32,0.34,1.27,-0.05,11.76,99.3,-66
3914,187.464,1.01,0.94,0.10,0.93,-0.05,11.76,99.3,-66
3915,187.548,1.01,0.93,0.00,0.93,0.00,11.07,99.3,-66
3916,187.631,0.96,0.94,-0.05,0.93,-0.10,11.07,99.3,-66
3917,187.715,0.92,1.03,0.05,1.03,-0.10,11.07,99.3,-66
3918,187.799,1.04,1.11,0.24,1.08,0.00,11.76,99.3,-65
3919,187.882,0.99,1.05,0.20,1.03,0.00,11.76,99.3,-65
3920,187.966,0.98,0.98,0.05,0.98,0.00,11.76,99.3,-65
3921,188.049,0.98,1.03,0.00,1.03,0.00,11.07,99.3,-65
3922,188.133,1.05,1.04,0.05,1.03,-0.15,11.07,99.3,-65
3923,188.216,1.06,0.95,0.05,0.93,-0.20,11.07,99.3,-65
3924,188.300,1.10,0.99,0.10,0.98,-0.10,11.76,99.4,-63
3925,188.383,1.05,0.99,0.05,0.98,-0.10,11.76,99.4,-63
3926,188.467,0.97,1.14,0.15,1.13,-0.10,11.76,99.4,-63
3927,188.551,0.97,1.18,0.29,1.13,-0.20,11.09,99.4,-63
3928,188.634,0.93,1.16,0.15,1.13,-0.24,11.11,99.4,-63
3929,188.718,0.93,1.04,0.15,1.03,-0.10,11.13,99.4,-63
3930,188.818,1.00,1.19,0.20,1.18,0.00,11.83,99.4,-60
3931,188.918,1.00,1.14,0.20,1.13,-0.05,11.83,99.4,-60
3932,189.018,1.00,1.08,0.10,1.08,-0.05,11.83,99.4,-60
3933,189.119,1.00,1.03,0.10,1.03,-0.05,11.11,99.4,-60
3934,189.219,0.98,1.18,0.05,1.18,-0.05,11.09,99.4,-60
3935,189.319,0.92,1.23,0.15,1.22,-0.05,11.07,99.4,-60
3936,189.402,0.94,1.36,0.29,1.32,-0.10,11.76,99.4,-59
3937,189.486,0.96,1.43,0.34,1.37,-0.20,11.76,99.4,-59
3938,189.570,0.93,1.31,0.24,1.27,-0.15,11.76,99.4,-59
3939,189.653,0.93,1.14,0.15,1.13,-0.05,11.07,99.4,-59
3940,189.737,0.93,1.14,0.15,1.13,-0.10,11.07,99.4,-59
3941,189.820,0.86,1.19,0.15,1.18,-0.15,11.07,99.4,-59
3942,189.904,0.99,1.24,0.15,1.22,-0.10,11.76,99.5,-58
3943,189.987,0.99,1.29,0.15,1.27,-0.10,11.76,99.5,-58
3944,190.071,0.93,1.38,0.15,1.37,-0.10,11.76,99.5,-58
3945,190.155,0.93,1.36,0.29,1.32,-0.10,11.07,99.5,-58
3946,190.238,0.87,1.24,0.20,1.22,-0.05,11.07,99.5,-58
3947,190.322,0.87,1.09,0.15,1.08,0.00,11.07,99.5,-58
3948,190.405,0.90,1.21,0.20,1.18,-0.20,11.76,99.5,-58
3949,190.489,0.85,1.15,0.15,1.13,-0.20,11.76,99.5,-58
3950,190.572,0.94,1.19,0.05,1.18,-0.20,11.76,99.5,-58
3951,190.656,0.94,1.23,0.05,1.22,-0.15,11.09,99.5,-58
3952,190.739,0.93,1.25,0.20,1.22,-0.15,11.11,99.5,-58
3953,190.823,1.00,1.17,0.29,1.13,-0.10,11.13,99.5,-58
3954,190.923,1.15,1.13,0.05,1.13,-0.05,11.83,99.5,-54
3955,191.023,1.11,1.13,0.00,1.13,-0.05,11.83,99.5,-54
3956,191.124,1.06,1.13,0.05,1.13,0.00,11.83,99.5,-54
3957,191.224,1.06,1.13,0.00,1.13,-0.05,11.11,99.5,-54
3958,191.324,1.05,1.18,0.10,1.18,-0.05,11.09,99.5,-54
3959,191.424,1.03,1.19,0.20,1.18,0.00,11.07,99.5,-54
3960,191.508,1.08,1.07,0.29,1.03,0.00,11.76,99.5,-54
3961,191.591,1.02,1.08,0.34,1.03,0.00,11.76,99.5,-54
3962,191.675,0.99,1.02,0.29,0.98,0.00,11.76,99.5,-54
3963,191.758,0.99,1.09,0.15,1.08,-0.05,11.07,99.5,-54
3964,191.842,0.93,1.03,0.05,1.03,0.05,11.07,99.5,-54
3965,191.926,0.93,1.23,0.10,1.22,0.05,11.07,99.5,-54
3966,192.009,0.96,1.03,0.10,1.03,0.00,11.76,99.6,-52
3967,192.093,0.95,1.10,0.20,1.08,0.00,11.76,99.6,-52
3968,192.176,0.95,1.04,0.15,1.03,0.00,11.76,99.6,-52
3969,192.260,0.95,0.94,0.10,0.93,0.00,11.07,99.6,-52
3970,192.343,0.96,1.08,0.05,1.08,-0.05,11.07,99.6,-52
3971,192.427,1.01,1.23,0.05,1.22,-0.05,11.07,99.6,-52
3972,192.510,1.09,0.97,0.24,0.93,-0.10,11.76,99.6,-49
3973,192.594,0.92,1.14,0.34,1.08,-0.10,11.76,99.6,-49
3974,192.678,0.91,1.12,0.44,1.03,-0.10,11.76,99.6,-49
3975,192.761,0.91,1.06,0.24,1.03,-0.05,11.09,99.6,-49
3976,192.845,0.92,1.06,0.24,1.03,0.00,11.11,99.6,-49
3977,192.928,0.89,1.03,0.10,1.03,0.00,11.13,99.6,-49
3978,193.028,0.94,0.86,0.20,0.83,0.00,11.83,99.6,-49
3979,193.128,1.02,1.05,0.20,1.03,0.05,11.83,99.6,-49
3980,193.228,1.05,1.05,0.20,1.03,0.00,11.83,99.6,-49
3981,193.328,1.05,0.99,0.10,0.98,0.05,11.11,99.6,-49
3982,193.428,0.99,1.03,0.05,1.03,0.05,11.09,99.6,-49
3983,193.528,1.08,0.98,0.05,0.98,0.05,11.07,99.6,-49
3984,193.612,1.16,0.99,0.15,0.98,-0.05,11.76,99.6,-47
3985,193.696,1.04,1.04,0.15,1.03,0.00,11.76,99.6,-47
3986,193.779,0.98,1.08,0.10,1.08,0.00,11.76,99.6,-47
3987,193.863,0.98,1.04,0.10,1.03,0.10,11.07,99.6,-47
3988,193.946,0.94,1.09,0.10,1.08,0.10,11.07,99.6,-47
3989,194.030,0.98,1.09,0.05,1.08,0.15,11.07,99.6,-47
3990,194.113,1.00,0.93,0.00,0.93,0.00,11.76,99.7,-43
3991,194.197,0.92,1.13,-0.05,1.13,0.10,11.76,99.7,-43
3992,194.280,0.95,1.03,0.05,1.03,0.10,11.76,99.7,-43
3993,194.364,0.95,0.93,0.05,0.93,0.05,11.07,99.7,-43
3994,194.447,0.97,1.03,0.00,1.03,0.05,11.07,99.7,-43
3995,194.531,0.89,1.13,0.05,1.13,0.10,11.07,99.7,-43
3996,194.615,0.88,1.15,0.10,1.13,0.20,11.76,99.7,-45
3997,194.698,0.86,1.11,0.10,1.08,0.24,11.76,99.7,-45
3998,194.782,0.85,1.02,0.05,0.98,0.29,11.76,99.7,-45
3999,194.865,0.85,1.02,0.00,0.98,0.29,11.09,99.7,-45
4000,194.949,0.84,0.96,0.00,0.93,0.24,11.11,99.7,-45
4001,195.032,0.87,1.04,0.00,1.03,0.15,11.14,99.7,-45
4002,195.133,0.93,0.95,0.20,0.93,0.05,11.83,99.7,-41
4003,195.233,0.94,0.98,0.29,0.93,0.10,11.83,99.7,-41
4004,195.333,0.92,0.83,0.24,0.78,0.15,11.83,99.7,-41
4005,195.433,0.92,0.81,0.20,0.78,0.10,11.11,99.7,-41
4006,195.533,0.87,0.85,0.15,0.83,0.05,11.09,99.7,-41
4007,195.634,0.89,0.94,0.15,0.93,0.05,11.07,99.7,-41
4008,195.717,0.93,1.42,0.00,1.42,-0.10,11.76,99.7,-43
