sid,time,altitude,acceleration,acceleration-X,acceleration-Y,acceleration-Z,SPS,Reliability,RSSI
2868,-0.549,0.00,1.24,0.00,1.18,-0.39,0.00,100.0,-47
2869,-0.349,-0.07,1.20,-0.05,1.18,-0.24,0.00,100.0,-47
2870,-0.149,-0.09,1.24,0.00,1.18,-0.39,0.00,100.0,-47
2871,0.051,-0.09,1.12,0.00,1.08,-0.29,0.00,100.0,-47
2872,0.251,-0.13,1.22,0.00,1.18,-0.34,0.00,100.0,-47
2873,0.451,-0.16,1.27,0.00,1.22,-0.34,0.00,100.0,-47
2874,0.535,-0.10,1.22,0.00,1.18,-0.34,5.54,100.0,-49
2875,0.618,-0.10,1.17,-0.05,1.13,-0.29,5.14,100.0,-49
2876,0.702,-0.13,1.26,0.00,1.18,-0.44,4.80,100.0,-49
2877,0.785,-0.13,1.20,-0.05,1.18,-0.24,4.50,100.0,-49
2878,0.869,-0.19,1.23,-0.05,1.18,-0.34,4.23,100.0,-49
2879,0.952,-0.21,1.19,-0.05,1.13,-0.39,4.00,100.0,-49
2880,1.036,-0.20,1.24,-0.05,1.18,-0.39,7.58,100.0,-47
2881,1.119,-0.17,1.19,-0.05,1.13,-0.39,7.20,100.0,-47
2882,1.203,-0.07,1.27,-0.05,1.22,-0.34,6.85,100.0,-47
2883,1.286,-0.07,1.23,-0.05,1.18,-0.34,6.54,100.0,-47
2884,1.370,-0.10,1.18,0.00,1.13,-0.34,6.25,100.0,-47
2885,1.453,-0.08,1.20,0.00,1.18,-0.24,5.99,100.0,-47
2886,1.537,-0.06,1.21,0.00,1.18,-0.29,8.63,100.0,-51
2887,1.621,-0.10,1.24,0.00,1.18,-0.39,8.30,100.0,-51
2888,1.704,-0.12,1.26,0.00,1.18,-0.44,7.99,100.0,-51
2889,1.788,-0.12,1.26,-0.05,1.18,-0.44,7.70,100.0,-51
2890,1.871,-0.09,1.24,0.00,1.18,-0.39,7.44,100.0,-51
2891,1.955,-0.13,1.24,-0.05,1.18,-0.39,7.19,100.0,-51
2892,2.055,-0.09,1.24,-0.05,1.18,-0.39,9.22,100.0,-47
2893,2.156,-0.12,1.21,-0.05,1.18,-0.29,8.88,100.0,-47
2894,2.256,-0.09,1.22,0.00,1.18,-0.34,8.56,100.0,-47
2895,2.356,-0.09,1.18,0.00,1.13,-0.34,8.26,100.0,-47
2896,2.456,-0.12,1.24,0.00,1.18,-0.39,7.99,100.0,-47
2897,2.556,-0.15,1.23,-0.05,1.18,-0.34,7.73,100.0,-47
2898,2.640,-0.10,1.15,0.00,1.13,-0.24,9.41,100.0,-38
2899,2.724,-0.10,1.65,0.05,1.62,-0.34,9.17,100.0,-38
2900,2.807,-0.09,1.08,0.00,1.03,-0.34,8.94,100.0,-38
2901,2.891,-0.09,1.13,-0.05,1.13,-0.10,8.72,100.0,-38
2902,2.974,-0.17,1.25,0.05,1.13,-0.54,8.52,100.0,-38
2903,3.058,-0.13,1.52,-0.05,1.42,-0.54,8.32,100.0,-38
2904,3.142,-0.03,1.16,0.00,1.13,-0.29,9.76,100.0,-38
2905,3.225,-0.07,1.16,0.10,1.13,-0.24,9.54,100.0,-38
2906,3.309,0.00,1.19,0.05,1.18,-0.20,9.33,100.0,-38
2907,3.392,0.00,1.20,0.10,1.18,-0.24,9.13,100.0,-38
2908,3.476,-0.02,1.27,0.05,1.18,-0.49,8.95,100.0,-38
2909,3.560,0.05,1.23,0.05,1.18,-0.34,8.76,100.0,-38
2910,3.643,0.10,1.21,0.00,1.13,-0.44,10.02,100.0,-44
2911,3.727,0.12,1.23,0.00,1.13,-0.49,9.82,100.0,-44
2912,3.810,0.11,1.46,0.00,1.42,-0.34,9.64,100.0,-44
2913,3.894,0.11,1.49,0.00,1.42,-0.44,9.45,100.0,-44
2914,3.978,0.11,1.54,0.00,1.32,-0.78,9.28,100.0,-44
2915,4.061,0.14,1.34,-0.05,1.18,-0.64,9.11,100.0,-44
2916,4.161,0.11,1.20,0.05,0.98,-0.69,10.19,100.0,-45
2917,4.262,0.13,1.29,0.05,1.03,-0.78,9.98,100.0,-45
2918,4.362,0.15,1.30,0.00,1.08,-0.74,9.78,100.0,-45
2919,4.462,0.15,1.27,0.05,1.03,-0.74,9.58,100.0,-45
2920,4.562,0.16,1.21,0.00,1.03,-0.64,9.39,100.0,-45
2921,4.662,0.24,1.26,0.00,1.03,-0.74,9.21,100.0,-45
2922,4.746,0.30,1.30,0.20,0.93,-0.88,10.20,100.0,-48
2923,4.830,0.33,1.19,0.15,0.83,-0.83,10.04,100.0,-48
2924,4.913,0.29,1.15,0.05,0.78,-0.83,9.89,100.0,-48
2925,4.997,0.29,1.05,0.10,0.69,-0.78,9.74,100.0,-48
2926,5.080,0.23,1.15,0.15,0.78,-0.83,9.59,100.0,-48
2927,5.164,0.25,1.09,0.20,0.78,-0.74,9.45,100.0,-48
2928,5.248,0.28,1.16,0.10,0.69,-0.93,10.35,100.0,-49
2929,5.331,0.26,1.19,0.15,0.78,-0.88,10.20,100.0,-49
2930,5.415,0.26,1.22,0.15,0.83,-0.88,10.06,100.0,-49
2931,5.498,0.26,1.26,0.15,0.83,-0.93,9.92,100.0,-49
2932,5.582,0.17,1.16,0.15,0.74,-0.88,9.79,100.0,-49
2933,5.665,0.22,1.17,0.15,0.69,-0.93,9.66,100.0,-49
2934,5.749,0.26,1.60,0.05,1.22,-1.03,10.48,100.0,-55
2935,5.833,0.27,1.56,0.00,1.18,-1.03,10.34,100.0,-55
2936,5.916,0.28,1.29,0.00,1.03,-0.78,10.21,100.0,-55
2937,6.000,0.28,1.27,0.00,1.13,-0.59,10.08,100.0,-55
2938,6.083,0.26,1.30,0.05,1.13,-0.64,9.95,100.0,-55
2939,6.167,0.28,1.32,0.05,0.98,-0.88,9.83,100.0,-55
2940,6.251,0.32,1.23,-0.05,1.08,-0.59,10.59,100.0,-53
2941,6.334,0.25,1.23,-0.05,1.08,-0.59,10.46,100.0,-53
2942,6.418,0.19,1.27,-0.05,1.13,-0.59,10.33,100.0,-53
2943,6.502,0.19,1.38,-0.10,1.22,-0.64,10.21,100.0,-53
2944,6.586,0.12,1.34,-0.05,1.18,-0.64,10.09,100.0,-53
2945,6.669,0.14,1.25,0.00,1.08,-0.64,9.98,100.0,-53
2946,6.770,0.22,1.16,-0.20,1.03,-0.49,10.66,100.0,-53
2947,6.870,0.19,1.38,-0.05,1.32,-0.39,10.51,100.0,-53
2948,6.970,0.14,1.34,0.00,1.22,-0.54,10.37,100.0,-53
2949,7.070,0.14,1.32,0.00,1.22,-0.49,10.24,100.0,-53
2950,7.171,0.11,1.19,0.00,1.13,-0.39,10.10,100.0,-53
2951,7.271,0.17,1.11,0.00,1.08,-0.24,9.98,100.0,-53
2952,7.354,0.21,1.24,0.00,1.18,-0.39,10.63,100.0,-54
2953,7.438,0.28,1.27,-0.05,1.18,-0.49,10.52,100.0,-54
2954,7.522,0.29,1.27,-0.05,1.18,-0.49,10.41,100.0,-54
2955,7.605,0.29,1.30,0.00,1.22,-0.44,10.30,100.0,-54
2956,7.689,0.25,1.21,-0.05,1.13,-0.44,10.20,100.0,-54
2957,7.772,0.31,1.19,0.00,1.13,-0.39,10.10,100.0,-54
2958,7.856,0.34,1.21,-0.05,1.13,-0.44,10.71,100.0,-52
2959,7.939,0.30,1.19,-0.05,1.08,-0.49,10.60,100.0,-52
2960,8.023,0.31,1.29,-0.05,1.18,-0.54,10.50,100.0,-52
2961,8.107,0.31,1.26,-0.05,1.18,-0.44,10.40,100.0,-52
2962,8.190,0.29,1.24,-0.05,1.18,-0.39,10.30,100.0,-52
2963,8.274,0.33,1.26,-0.05,1.18,-0.44,10.20,100.0,-52
2964,8.357,0.35,1.21,-0.05,1.13,-0.44,10.78,100.0,-52
2965,8.441,0.27,1.25,-0.05,1.13,-0.54,10.68,100.0,-52
2966,8.525,0.21,1.26,0.00,1.18,-0.44,10.58,100.0,-52
2967,8.608,0.21,1.27,0.00,1.18,-0.49,10.48,100.0,-52
2968,8.692,0.23,1.24,-0.05,1.18,-0.39,10.62,100.0,-52
2969,8.775,0.24,1.24,0.00,1.18,-0.39,10.76,100.0,-52
2970,8.875,0.26,1.24,-0.05,1.18,-0.39,11.56,100.0,-52
2971,8.976,0.25,1.19,0.00,1.13,-0.39,11.69,100.0,-52
2972,9.076,0.30,1.32,0.00,1.22,-0.49,11.83,100.0,-52
2973,9.176,0.30,1.19,0.00,1.13,-0.39,11.11,100.0,-52
2974,9.276,0.29,1.21,-0.05,1.13,-0.44,11.09,100.0,-52
2975,9.377,0.35,1.27,0.00,1.18,-0.49,11.07,100.0,-52
2976,9.460,0.40,1.26,0.00,1.18,-0.44,11.76,100.0,-52
2977,9.544,0.30,1.26,-0.05,1.18,-0.44,11.76,100.0,-52
2978,9.627,0.34,1.23,-0.05,1.18,-0.34,11.76,100.0,-52
2979,9.711,0.34,1.21,0.00,1.13,-0.44,11.07,100.0,-52
2980,9.795,0.36,1.24,-0.10,1.18,-0.39,11.07,100.0,-52
2981,9.878,0.38,1.24,0.00,1.18,-0.39,11.07,100.0,-52
2982,9.962,0.37,1.26,0.00,1.18,-0.44,11.76,100.0,-52
2983,10.045,0.27,1.34,0.00,1.22,-0.54,11.76,100.0,-52
2984,10.129,0.21,1.27,0.00,1.18,-0.49,11.76,100.0,-52
2985,10.213,0.21,1.30,0.00,1.22,-0.44,11.07,100.0,-52
2986,10.296,0.20,1.16,0.00,1.08,-0.44,11.07,100.0,-52
2987,10.380,0.21,1.21,-0.05,1.13,-0.44,11.07,100.0,-52
2988,10.463,0.21,1.30,0.00,1.22,-0.44,11.76,100.0,-51
2989,10.547,0.21,1.32,0.00,1.22,-0.49,11.76,100.0,-51
2990,10.630,0.23,1.24,0.00,1.18,-0.39,11.76,100.0,-51
2991,10.714,0.23,1.16,0.00,1.08,-0.44,11.09,100.0,-51
2992,10.798,0.26,1.15,0.00,1.08,-0.39,11.11,100.0,-51
2993,10.881,0.23,1.15,0.05,1.08,-0.39,11.13,100.0,-51
2994,10.981,0.30,1.29,0.00,1.22,-0.39,11.83,100.0,-51
2995,11.082,0.26,1.26,0.00,1.18,-0.44,11.83,100.0,-51
2996,11.182,0.26,1.21,0.00,1.13,-0.44,11.83,100.0,-51
2997,11.282,0.26,1.21,0.00,1.13,-0.44,11.11,100.0,-51
2998,11.382,0.25,1.21,0.00,1.13,-0.44,11.09,100.0,-51
2999,11.483,0.27,1.04,-0.05,0.98,-0.34,11.07,100.0,-51
3000,11.566,0.29,1.21,0.00,1.13,-0.44,11.76,100.0,-51
3001,11.650,0.25,1.21,0.05,1.13,-0.44,11.76,100.0,-51
3002,11.733,0.21,1.26,0.00,1.18,-0.44,11.76,100.0,-51
3003,11.817,0.21,1.29,0.05,1.18,-0.54,11.07,100.0,-51
3004,11.901,0.19,1.19,0.00,1.13,-0.39,11.07,100.0,-51
3005,11.984,0.06,1.18,0.00,1.13,-0.34,11.07,100.0,-51
3006,12.068,0.13,1.26,0.00,1.18,-0.44,11.76,100.0,-51
3007,12.151,0.16,1.27,0.05,1.18,-0.49,11.76,100.0,-51
3008,12.235,0.13,1.19,0.05,1.08,-0.49,11.76,100.0,-51
3009,12.318,0.13,1.26,0.00,1.18,-0.44,11.07,100.0,-51
3010,12.402,0.13,1.27,0.00,1.18,-0.49,11.07,100.0,-51
3011,12.486,0.24,1.23,0.05,1.13,-0.49,11.07,100.0,-51
3012,12.569,0.26,1.27,0.00,1.18,-0.49,11.76,100.0,-51
3013,12.653,0.17,1.19,0.05,1.13,-0.39,11.76,100.0,-51
3014,12.736,0.10,1.26,0.00,1.18,-0.44,11.76,100.0,-51
3015,12.820,0.10,1.21,0.00,1.13,-0.44,11.09,100.0,-51
3016,12.904,0.08,1.27,0.00,1.18,-0.49,11.11,100.0,-51
3017,12.987,0.13,1.21,0.00,1.13,-0.44,11.13,100.0,-51
3018,13.087,0.17,1.24,0.00,1.18,-0.39,11.83,100.0,-50
3019,13.188,0.19,1.26,0.00,1.18,-0.44,11.83,100.0,-50
3020,13.288,0.20,1.32,0.05,1.22,-0.49,11.83,100.0,-50
3021,13.388,0.20,1.27,0.05,1.18,-0.49,11.11,100.0,-50
3022,13.488,0.09,1.26,0.05,1.18,-0.44,11.09,100.0,-50
3023,13.589,0.12,1.26,0.05,1.18,-0.44,11.07,100.0,-50
3024,13.672,0.18,1.16,0.05,1.03,-0.54,11.76,100.0,-48
3025,13.756,0.17,1.23,0.00,1.08,-0.59,11.76,100.0,-48
3026,13.839,0.17,1.23,0.00,1.08,-0.59,11.76,100.0,-48
3027,13.923,0.17,1.29,0.00,1.13,-0.64,11.07,100.0,-48
3028,14.007,0.18,1.23,0.05,1.08,-0.59,11.07,100.0,-48
3029,14.090,0.16,1.27,0.05,1.13,-0.59,11.07,100.0,-48
3030,14.174,0.29,1.26,0.05,1.22,-0.29,11.76,100.0,-52
3031,14.257,0.25,1.22,0.00,1.18,-0.34,11.76,100.0,-52
3032,14.341,0.16,1.22,0.00,1.18,-0.34,11.76,100.0,-52
3033,14.424,0.16,1.15,-0.05,1.13,-0.24,11.07,100.0,-52
3034,14.508,0.11,1.23,0.00,1.13,-0.49,11.07,100.0,-52
3035,14.592,0.19,1.19,0.00,1.03,-0.59,11.07,100.0,-52
3036,14.675,0.26,1.27,0.05,1.18,-0.49,11.76,100.0,-55
3037,14.759,0.24,1.26,0.05,1.18,-0.44,11.76,100.0,-55
3038,14.842,0.20,1.21,0.00,1.13,-0.44,11.76,100.0,-55
3039,14.926,0.20,1.16,0.00,1.13,-0.29,11.07,100.0,-55
3040,15.010,0.22,1.18,0.00,1.18,-0.10,11.07,100.0,-55
3041,15.093,0.26,1.14,0.00,1.13,-0.15,11.07,100.0,-55
3042,15.177,0.24,1.35,-0.05,1.27,-0.44,11.76,100.0,-48
3043,15.260,0.25,1.37,-0.10,1.32,-0.34,11.76,100.0,-48
3044,15.344,0.27,1.29,0.00,1.27,-0.20,11.76,100.0,-48
3045,15.427,0.27,1.49,0.00,1.47,-0.24,11.09,100.0,-48
3046,15.511,0.23,1.35,0.00,1.27,-0.44,11.11,100.0,-48
3047,15.595,0.23,1.35,0.00,1.27,-0.44,11.13,100.0,-48
3048,15.695,0.20,0.90,-0.20,0.88,-0.05,11.83,100.0,-49
3049,15.795,0.25,0.89,-0.10,0.88,0.00,11.83,100.0,-49
3050,15.895,0.31,0.84,-0.10,0.83,0.00,11.83,100.0,-49
3051,15.995,0.31,1.01,-0.20,0.98,-0.15,11.11,100.0,-49
3052,16.096,0.33,0.95,-0.15,0.93,-0.15,11.09,100.0,-49
3053,16.196,0.32,1.10,-0.24,1.03,-0.29,11.07,100.0,-49
3054,16.279,0.34,1.06,-0.29,0.98,-0.29,11.76,100.0,-49
3055,16.363,0.28,1.13,-0.24,1.08,-0.24,11.76,100.0,-49
3056,16.447,0.35,1.17,-0.24,1.13,-0.20,11.76,100.0,-49
3057,16.530,0.35,1.23,-0.15,1.22,-0.05,11.07,100.0,-49
3058,16.614,0.33,1.48,-0.15,1.47,0.00,11.07,100.0,-49
3059,16.697,0.33,1.62,-0.05,1.62,0.00,11.07,100.0,-49
3060,16.781,0.37,1.08,-0.34,1.03,0.00,11.76,100.0,-50
3061,16.865,0.38,0.94,0.00,0.93,0.10,11.76,100.0,-50
3062,16.948,0.42,1.33,0.05,1.32,-0.10,11.76,100.0,-50
3063,17.032,0.42,1.85,0.00,1.81,-0.39,11.07,100.0,-50
3064,17.115,0.41,2.08,-0.20,2.01,-0.49,11.07,100.0,-50
3065,17.199,0.45,1.57,-0.20,1.52,-0.34,11.07,100.0,-50
3066,17.283,0.44,1.33,-0.34,1.27,-0.15,11.76,100.0,-49
3067,17.366,0.48,1.26,-0.29,1.22,-0.05,11.76,100.0,-49
3068,17.450,0.62,1.16,-0.24,1.13,-0.10,11.76,100.0,-49
3069,17.533,0.62,0.98,-0.29,0.93,-0.10,11.09,100.0,-49
3070,17.617,0.62,1.06,-0.34,0.98,-0.20,11.11,100.0,-49
3071,17.701,0.64,1.12,-0.39,1.03,-0.20,11.13,100.0,-49
3072,17.801,0.72,1.19,-0.15,1.08,-0.49,11.83,100.0,-47
3073,17.901,0.75,1.23,-0.10,1.08,-0.59,11.83,100.0,-47
3074,18.001,0.80,1.17,-0.05,1.08,-0.44,11.83,100.0,-47
3075,18.101,0.80,1.07,-0.05,1.03,-0.29,11.11,100.0,-47
3076,18.202,0.80,1.08,0.00,1.03,-0.34,11.09,100.0,-47
3077,18.302,0.80,0.87,0.00,0.83,-0.24,11.07,100.0,-47
3078,18.385,0.91,1.20,-0.24,1.18,-0.05,11.76,100.0,-44
3079,18.469,0.88,1.20,-0.24,1.18,-0.05,11.76,100.0,-44
3080,18.553,0.90,1.30,-0.20,1.27,-0.20,11.76,100.0,-44
3081,18.636,0.90,1.23,-0.05,1.22,-0.15,11.07,100.0,-44
3082,18.720,0.86,1.29,-0.20,1.27,-0.10,11.07,100.0,-44
3083,18.803,0.85,1.33,-0.34,1.27,-0.20,11.07,100.0,-44
3084,18.887,0.93,1.15,-0.15,1.13,0.20,11.76,100.0,-48
3085,18.971,0.93,1.14,-0.10,1.13,0.15,11.76,100.0,-48
3086,19.054,0.90,1.09,-0.05,1.08,-0.15,11.76,100.0,-48
3087,19.138,0.90,1.20,0.00,1.18,-0.24,11.07,100.0,-48
3088,19.221,0.62,0.82,-0.29,0.74,-0.20,11.07,100.0,-48
3089,19.305,0.67,0.86,-0.54,0.64,-0.20,11.07,100.0,-48
3090,19.389,0.75,0.92,-0.10,0.88,-0.24,11.76,100.0,-54
3091,19.472,0.78,0.92,-0.05,0.88,-0.24,11.76,100.0,-54
3092,19.556,0.87,1.06,-0.20,1.03,-0.15,11.76,100.0,-54
3093,19.639,0.87,1.16,-0.15,1.13,-0.24,11.09,100.0,-54
3094,19.723,0.80,1.33,-0.10,1.32,-0.05,11.11,100.0,-54
3095,19.807,0.85,0.95,-0.05,0.93,-0.20,11.13,100.0,-54
3096,19.907,0.98,1.23,-0.34,1.18,-0.15,11.83,100.0,-64
3097,20.007,0.96,1.29,-0.39,1.22,-0.15,11.83,100.0,-64
3098,20.107,0.93,1.27,-0.39,1.18,-0.29,11.83,100.0,-64
3099,20.207,0.93,1.21,-0.39,1.13,-0.20,11.11,100.0,-64
3100,20.308,0.97,1.20,-0.44,1.08,-0.29,11.09,100.0,-64
3101,20.408,0.89,1.17,-0.39,1.08,-0.24,11.07,100.0,-64
3102,20.491,0.96,1.15,-0.20,1.08,-0.34,11.76,100.0,-60
3103,20.575,0.95,1.11,-0.24,1.03,-0.34,11.76,100.0,-60
3104,20.659,0.95,0.90,-0.15,0.83,-0.29,11.76,100.0,-60
3105,20.742,0.95,1.01,-0.20,0.88,-0.44,11.07,100.0,-60
3106,20.826,0.95,1.17,-0.39,1.08,-0.24,11.07,100.0,-60
3107,20.909,0.96,1.27,-0.44,1.13,-0.39,11.07,100.0,-60
3108,20.993,1.02,1.23,-0.44,1.08,-0.39,11.76,100.0,-59
3109,21.077,1.08,1.31,-0.15,1.22,-0.44,11.76,100.0,-59
3110,21.160,1.06,1.35,-0.15,1.22,-0.54,11.76,100.0,-59
3111,21.244,1.06,1.32,-0.24,1.22,-0.44,11.07,100.0,-59
3112,21.327,1.06,1.19,-0.24,1.13,-0.29,11.07,100.0,-59
3113,21.411,1.09,1.16,-0.29,1.08,-0.29,11.07,100.0,-59
3114,21.495,1.09,1.45,0.00,1.42,-0.29,11.76,100.0,-61
3115,21.578,0.98,1.49,-0.15,1.47,-0.20,11.76,100.0,-61
3116,21.662,1.05,1.35,-0.15,1.32,-0.24,11.76,100.0,-61
3117,21.745,1.05,1.34,-0.34,1.27,-0.24,11.09,100.0,-61
3118,21.829,1.04,1.32,-0.44,1.22,-0.24,11.11,100.0,-61
3119,21.913,1.07,1.18,-0.34,1.13,0.00,11.13,100.0,-61
3120,22.013,1.07,1.05,-0.49,0.93,0.00,11.83,100.0,-64
3121,22.113,1.01,1.07,-0.44,0.98,0.00,11.83,100.0,-64
3122,22.213,0.98,1.14,-0.49,1.03,-0.05,11.83,100.0,-64
3123,22.313,0.98,1.28,-0.69,1.08,-0.05,11.11,100.0,-64
3124,22.414,0.91,1.26,-0.74,1.03,0.00,11.09,100.0,-64
3125,22.514,0.99,1.27,-0.74,1.03,0.15,11.07,100.0,-64
3126,22.597,1.04,1.19,-0.74,0.93,0.05,11.76,100.0,-71
3127,22.681,1.09,1.19,-0.74,0.93,0.05,11.76,100.0,-71
3128,22.765,1.03,1.26,-0.78,0.98,0.15,11.76,100.0,-71
3129,22.848,1.03,1.19,-0.74,0.93,0.10,11.07,100.0,-71
3130,22.932,0.98,1.15,-0.78,0.83,0.15,11.07,100.0,-71
3131,23.015,0.96,1.26,-0.83,0.93,0.15,11.07,100.0,-71
3132,23.099,1.02,0.99,-0.78,0.49,-0.34,11.76,100.0,-71
3133,23.183,0.98,1.07,-0.88,0.49,-0.34,11.76,100.0,-71
3134,23.266,1.00,1.02,-0.93,0.39,-0.15,11.76,100.0,-71
3135,23.350,1.00,1.12,-1.03,0.44,-0.10,11.07,100.0,-71
3136,23.433,1.06,1.13,-1.08,0.34,0.00,11.07,100.0,-71
3137,23.517,1.09,1.29,-1.22,0.39,-0.15,11.07,100.0,-71
3138,23.601,1.10,1.18,-1.13,0.29,-0.20,11.76,100.0,-63
3139,23.684,1.13,1.11,-1.03,0.34,-0.24,11.76,100.0,-63
3140,23.768,1.11,1.19,-1.13,0.34,-0.20,11.76,100.0,-63
3141,23.851,1.11,1.28,-1.22,0.34,-0.15,11.07,100.0,-63
3142,23.935,1.02,1.30,-1.22,0.39,-0.20,11.07,100.0,-63
3143,24.019,0.95,1.32,-1.22,0.44,-0.20,11.07,100.0,-63
3144,24.119,1.03,1.08,-1.08,0.05,0.00,11.74,100.0,-58
3145,24.219,1.02,1.03,-1.03,0.10,-0.05,11.71,100.0,-58
3146,24.319,1.03,1.11,-1.08,0.24,0.00,11.69,100.0,-58
3147,24.419,1.03,1.15,-1.13,0.20,-0.10,11.00,100.0,-58
3148,24.520,0.92,1.24,-1.22,0.20,-0.05,11.00,100.0,-58
3149,24.620,0.95,1.39,-1.37,0.24,-0.05,11.00,100.0,-58
3150,24.704,1.06,1.23,-1.18,0.24,-0.24,11.71,100.0,-58
3151,24.787,1.07,1.28,-1.22,0.24,-0.29,11.74,100.0,-58
3152,24.871,1.08,1.23,-1.13,0.29,-0.39,11.76,100.0,-58
3153,24.954,1.08,1.16,-1.08,0.29,-0.29,11.07,100.0,-58
3154,25.038,1.04,1.01,-0.98,0.15,-0.20,11.07,100.0,-58
3155,25.121,1.09,0.99,-0.93,0.15,-0.29,11.07,100.0,-58
3156,25.205,1.15,1.25,-1.22,0.15,-0.20,11.76,100.0,-59
3157,25.289,1.16,1.14,-1.13,0.10,-0.10,11.76,100.0,-59
3158,25.372,1.17,1.19,-1.18,0.15,-0.10,11.76,100.0,-59
3159,25.456,1.17,1.27,-1.22,0.24,-0.24,11.07,100.0,-59
3160,25.539,1.09,1.41,-1.37,0.24,-0.20,11.07,100.0,-59
3161,25.623,1.04,1.33,-1.32,0.10,-0.15,11.07,100.0,-59
3162,25.707,1.13,1.22,-1.18,0.20,-0.24,11.76,100.0,-60
3163,25.790,1.07,1.26,-1.22,0.20,-0.24,11.76,100.0,-60
3164,25.874,1.05,1.25,-1.22,0.15,-0.20,11.76,100.0,-60
3165,25.957,1.05,1.26,-1.22,0.20,-0.24,11.07,100.0,-60
3166,26.041,0.98,1.29,-1.22,0.29,-0.29,11.07,100.0,-60
3167,26.125,1.01,1.33,-1.27,0.24,-0.29,11.07,100.0,-60
3168,26.208,0.99,1.27,-1.22,0.20,-0.29,11.76,100.0,-60
3169,26.292,1.03,1.24,-1.18,0.24,-0.29,11.76,100.0,-60
3170,26.375,1.06,1.26,-1.18,0.24,-0.39,11.76,100.0,-60
3171,26.459,1.06,1.23,-1.13,0.29,-0.39,11.09,100.0,-60
3172,26.543,1.00,1.22,-1.18,0.20,-0.24,11.11,100.0,-60
3173,26.626,1.00,1.27,-1.22,0.24,-0.24,11.13,100.0,-60
3174,26.726,0.99,1.11,-1.03,0.10,-0.39,11.83,100.0,-60
3175,26.827,0.96,1.13,-1.08,0.15,-0.29,11.83,100.0,-60
3176,26.927,1.07,1.13,-1.08,0.15,-0.29,11.83,100.0,-60
3177,27.027,1.07,1.05,-0.98,0.15,-0.34,11.11,100.0,-60
3178,27.127,1.06,1.12,-1.03,0.29,-0.34,11.09,100.0,-60
3179,27.228,1.07,1.16,-1.08,0.24,-0.34,11.07,100.0,-60
3180,27.311,1.13,1.19,-1.13,0.24,-0.29,11.76,100.0,-61
3181,27.395,1.08,1.11,-1.08,0.20,-0.15,11.76,100.0,-61
3182,27.478,1.08,1.22,-1.18,0.24,-0.20,11.76,100.0,-61
3183,27.562,1.08,1.26,-1.22,0.24,-0.20,11.07,100.0,-61
3184,27.645,1.02,1.25,-1.18,0.15,-0.39,11.07,100.0,-61
3185,27.729,1.03,1.31,-1.22,0.24,-0.39,11.07,100.0,-61
3186,27.813,1.10,1.08,-0.98,0.15,-0.44,11.76,100.0,-59
3187,27.896,1.05,1.30,-1.18,0.10,-0.54,11.76,100.0,-59
3188,27.980,1.03,1.26,-1.18,0.10,-0.44,11.76,100.0,-59
3189,28.063,1.03,1.09,-1.03,0.10,-0.34,11.07,100.0,-59
3190,28.147,0.98,1.20,-1.18,0.05,-0.24,11.07,100.0,-59
3191,28.231,0.94,1.10,-1.08,0.20,-0.10,11.07,100.0,-59
3192,28.314,1.01,1.13,-1.08,0.15,-0.29,11.76,100.0,-69
3193,28.398,1.00,1.26,-1.18,0.15,-0.44,11.76,100.0,-69
3194,28.481,1.05,1.28,-1.22,0.15,-0.34,11.76,100.0,-69
3195,28.565,1.05,1.40,-1.27,0.39,-0.44,11.09,100.0,-69
3196,28.649,0.98,1.29,-1.18,0.29,-0.44,11.11,100.0,-69
3197,28.732,0.92,1.38,-1.27,0.29,-0.44,11.13,100.0,-69
3198,28.832,0.93,0.96,-0.88,0.15,-0.34,11.83,100.0,-71
3199,28.933,0.92,1.07,-1.03,0.15,-0.24,11.83,100.0,-71
3200,29.033,0.97,1.27,-1.18,0.34,-0.34,11.83,100.0,-71
3201,29.133,0.97,1.35,-1.27,0.29,-0.34,11.11,100.0,-71
3202,29.233,1.00,1.16,-1.08,0.15,-0.39,11.09,100.0,-71
3203,29.334,0.89,1.16,-1.08,0.20,-0.39,11.07,100.0,-71
3204,29.417,0.94,1.24,-1.13,0.15,-0.49,11.76,100.0,-71
3205,29.501,0.87,1.17,-1.08,0.24,-0.39,11.76,100.0,-71
3206,29.584,0.79,1.16,-1.08,0.20,-0.39,11.76,100.0,-71
3207,29.668,0.79,1.19,-1.13,0.20,-0.34,11.07,100.0,-71
3208,29.751,0.65,1.19,-1.13,0.20,-0.34,11.07,100.0,-71
3209,29.835,0.64,1.25,-1.18,0.15,-0.39,11.07,100.0,-71
3210,29.919,0.64,1.13,-1.08,0.05,-0.34,11.76,100.0,-89
3211,30.002,0.63,1.12,-1.08,0.10,-0.29,11.76,100.0,-89
3212,30.086,0.66,1.30,-1.18,0.15,-0.54,11.76,100.0,-89
3213,30.169,0.66,1.21,-1.13,0.20,-0.39,11.07,100.0,-89
3214,30.253,0.67,1.15,-1.03,0.24,-0.44,11.07,100.0,-89
3215,30.337,0.68,1.39,-1.22,0.29,-0.59,11.07,100.0,-89
3216,30.420,0.67,1.42,-1.22,0.34,-0.64,11.76,100.0,-82
3217,30.504,0.60,1.36,-1.22,0.24,-0.54,11.76,100.0,-82
3218,30.587,0.55,1.27,-1.18,0.29,-0.39,11.76,100.0,-82
3219,30.671,0.55,1.23,-1.13,0.29,-0.39,11.09,100.0,-82
3220,30.754,0.46,1.13,-1.08,0.20,-0.29,11.11,100.0,-82
3221,30.838,0.46,1.17,-1.13,0.20,-0.24,11.13,100.0,-82
3222,30.938,0.51,1.27,-1.18,0.34,-0.34,11.83,100.0,-81
3223,31.039,0.42,1.24,-1.13,0.29,-0.44,11.83,100.0,-81
3224,31.139,0.49,1.20,-1.13,0.24,-0.34,11.83,100.0,-81
3225,31.239,0.49,1.20,-1.13,0.29,-0.29,11.11,100.0,-81
3226,31.339,0.42,1.24,-1.18,0.24,-0.29,11.09,100.0,-81
3227,31.439,0.46,1.22,-1.13,0.24,-0.39,11.07,100.0,-81
3228,31.523,0.47,1.33,-1.22,0.29,-0.44,11.76,100.0,-83
3229,31.607,0.46,1.24,-1.13,0.29,-0.44,11.76,100.0,-83
3230,31.690,0.39,1.30,-1.18,0.34,-0.44,11.76,100.0,-83
3231,31.774,0.39,1.20,-1.13,0.24,-0.34,11.07,100.0,-83
3232,31.857,0.32,1.19,-1.13,0.20,-0.34,11.07,100.0,-83
3233,31.941,0.31,1.25,-1.18,0.24,-0.34,11.07,100.0,-83
3234,32.025,0.39,1.09,-1.03,0.10,-0.34,11.76,100.0,-77
3235,32.108,0.41,1.10,-1.03,0.20,-0.34,11.76,100.0,-77
3236,32.192,0.46,1.18,-1.13,0.24,-0.24,11.76,100.0,-77
3237,32.275,0.46,1.43,-1.32,0.39,-0.39,11.07,100.0,-77
3238,32.359,0.41,1.58,-1.42,0.54,-0.44,11.07,100.0,-77
3239,32.442,0.76,1.67,-1.47,0.54,-0.59,11.07,100.0,-77
3240,32.526,1.18,1.20,-1.13,0.15,-0.39,11.76,100.0,-82
3241,32.610,0.96,1.38,-1.27,0.29,-0.44,11.76,100.0,-82
3242,32.693,0.88,1.53,-1.42,0.29,-0.49,11.76,100.0,-82
3243,32.777,0.88,1.26,-1.18,0.15,-0.44,11.09,100.0,-82
3244,32.860,0.76,1.15,-1.08,0.10,-0.39,11.11,100.0,-82
3245,32.944,0.65,1.20,-1.13,0.24,-0.34,11.13,100.0,-82
3246,33.044,0.52,1.21,-1.13,0.20,-0.39,11.83,100.0,-85
3247,33.144,0.49,1.20,-1.13,0.10,-0.39,11.83,100.0,-85
3248,33.245,0.47,1.20,-1.13,0.24,-0.34,11.83,100.0,-85
3249,33.345,0.47,1.21,-1.13,0.20,-0.39,11.11,100.0,-85
3250,33.445,0.44,1.23,-1.18,0.20,-0.29,11.09,100.0,-85
3251,33.545,0.36,1.31,-1.22,0.24,-0.39,11.07,100.0,-85
3252,33.629,0.40,1.24,-1.18,0.10,-0.39,11.76,100.0,-76
3253,33.713,0.39,1.18,-1.13,0.05,-0.34,11.76,100.0,-76
3254,33.796,0.31,1.23,-1.13,0.24,-0.44,11.76,100.0,-76
3255,33.880,0.31,1.20,-1.13,0.24,-0.34,11.07,100.0,-76
3256,33.963,0.24,1.20,-1.08,0.29,-0.44,11.07,100.0,-76
3257,34.047,0.21,1.22,-1.13,0.24,-0.39,11.07,100.0,-76
3258,34.131,0.22,1.25,-1.18,0.24,-0.34,11.76,100.0,-67
3259,34.214,0.32,1.15,-1.08,0.20,-0.34,11.76,100.0,-67
3260,34.298,0.41,1.26,-1.18,0.24,-0.39,11.76,100.0,-67
3261,34.381,0.41,1.23,-1.13,0.24,-0.44,11.07,100.0,-67
3262,34.465,0.38,1.28,-1.18,0.24,-0.44,11.07,100.0,-67
3263,34.549,0.34,1.35,-1.18,0.29,-0.59,11.07,100.0,-67
3264,34.632,0.37,1.25,-1.18,0.20,-0.39,11.76,100.0,-65
3265,34.716,0.37,1.21,-1.13,0.20,-0.39,11.76,100.0,-65
3266,34.799,0.35,1.21,-1.13,0.20,-0.39,11.76,100.0,-65
3267,34.883,0.35,1.28,-1.18,0.24,-0.44,11.07,100.0,-65
3268,34.966,0.27,1.23,-1.13,0.20,-0.44,11.07,100.0,-65
3269,35.050,0.26,1.22,-1.13,0.24,-0.39,11.07,100.0,-65
3270,35.150,0.42,1.19,-1.13,0.15,-0.34,11.74,100.0,-68
3271,35.250,0.38,1.20,-1.13,0.15,-0.39,11.71,100.0,-68
3272,35.351,0.42,1.25,-1.18,0.15,-0.39,11.69,100.0,-68
3273,35.451,0.42,1.23,-1.18,0.15,-0.34,11.00,100.0,-68
3274,35.551,0.36,1.28,-1.18,0.24,-0.44,11.00,100.0,-68
3275,35.651,0.36,1.21,-1.13,0.20,-0.39,11.00,100.0,-68
3282,35.818,0.29,1.24,-1.13,0.15,-0.49,11.60,94.5,-65
3283,35.985,0.24,1.23,-1.13,0.20,-0.44,11.52,94.5,-65
3284,36.152,0.28,1.24,-1.18,0.20,-0.34,11.43,94.5,-65
3285,36.318,0.28,1.21,-1.13,0.20,-0.39,10.66,94.5,-65
3286,36.485,0.30,1.25,-1.18,0.24,-0.34,10.56,94.5,-65
3287,36.652,0.31,1.19,-1.13,0.20,-0.34,10.46,94.5,-65
3288,36.735,0.35,1.21,-1.13,0.20,-0.39,11.12,94.8,-64
3289,36.819,0.35,1.22,-1.13,0.24,-0.39,11.12,94.8,-64
3290,36.902,0.42,1.20,-1.13,0.24,-0.34,11.12,94.8,-64
3291,36.986,0.42,1.21,-1.13,0.20,-0.39,10.46,94.8,-64
3292,37.070,0.42,1.31,-1.22,0.24,-0.39,10.47,94.8,-64
3293,37.153,0.40,1.26,-1.18,0.15,-0.44,10.47,94.8,-64
3294,37.253,0.48,1.25,-1.18,0.20,-0.39,11.10,95.1,-64
3295,37.354,0.41,1.23,-1.18,0.20,-0.29,11.08,95.1,-64
3296,37.454,0.32,1.23,-1.18,0.20,-0.29,11.06,95.1,-64
3297,37.554,0.32,1.22,-1.13,0.15,-0.44,10.39,95.1,-64
3298,37.654,0.32,1.24,-1.13,0.20,-0.49,10.37,95.1,-64
3299,37.754,0.36,1.22,-1.13,0.15,-0.44,10.35,95.1,-64
3300,37.838,0.41,1.32,-1.22,0.24,-0.44,11.00,95.4,-88
3301,37.922,0.39,1.26,-1.18,0.15,-0.44,11.00,95.4,-88
3302,38.005,0.32,1.26,-1.13,0.20,-0.54,11.00,95.4,-88
3303,38.089,0.32,1.27,-1.18,0.20,-0.44,10.37,95.4,-88
3304,38.172,0.33,1.26,-1.18,0.24,-0.39,10.39,95.4,-88
3305,38.256,0.37,1.19,-1.13,0.20,-0.34,10.41,95.4,-88
3306,38.339,0.44,1.23,-1.13,0.20,-0.44,11.08,95.7,-66
3307,38.423,0.43,1.22,-1.13,0.15,-0.44,11.10,95.7,-66
3308,38.506,0.39,1.25,-1.13,0.24,-0.49,11.12,95.7,-66
3309,38.590,0.39,1.23,-1.13,0.24,-0.44,10.47,95.7,-66
3310,38.674,0.36,1.28,-1.22,0.15,-0.34,10.47,95.7,-66
3311,38.757,0.40,1.19,-1.13,0.20,-0.34,10.47,95.7,-66
3312,38.841,0.50,1.23,-1.13,0.20,-0.44,11.12,95.9,-65
3313,38.924,0.39,1.26,-1.13,0.15,-0.54,11.12,95.9,-65
3314,39.008,0.41,1.18,-1.13,0.05,-0.34,11.12,95.9,-65
3315,39.092,0.41,1.03,-0.93,0.20,-0.39,10.47,95.9,-65
3316,39.175,0.38,1.38,-1.22,0.39,-0.49,10.47,95.9,-65
3317,39.259,0.37,1.17,-1.13,0.20,-0.24,10.47,95.9,-65
3318,39.359,0.41,1.30,-1.18,0.10,-0.54,11.10,96.2,-63
3319,39.459,0.35,1.29,-1.18,0.20,-0.49,11.08,96.2,-63
3320,39.559,0.32,1.20,-1.08,0.20,-0.49,11.06,96.2,-63
3321,39.660,0.32,1.28,-1.18,0.24,-0.44,10.39,96.2,-63
3322,39.760,0.30,1.24,-1.18,0.20,-0.34,10.37,96.2,-63
3323,39.860,0.32,1.20,-1.13,0.24,-0.34,10.35,96.2,-63
3324,39.943,0.35,1.25,-1.13,0.24,-0.49,11.00,96.4,-64
3325,40.027,0.40,1.23,-1.13,0.29,-0.39,11.00,96.4,-64
3326,40.111,0.39,1.35,-1.18,0.44,-0.49,11.00,96.4,-64
3327,40.194,0.39,1.27,-1.18,0.29,-0.39,10.37,96.4,-64
3328,40.278,0.39,1.23,-1.13,0.24,-0.44,10.39,96.4,-64
3329,40.361,0.37,1.31,-1.18,0.20,-0.54,10.41,96.4,-64
3330,40.445,0.43,1.33,-1.18,0.44,-0.44,11.08,96.6,-61
3331,40.528,0.35,1.26,-1.13,0.34,-0.44,11.10,96.6,-61
3332,40.612,0.34,1.31,-1.18,0.29,-0.49,11.12,96.6,-61
3333,40.695,0.34,1.29,-1.18,0.20,-0.49,10.47,96.6,-61
3334,40.779,0.23,1.17,-1.08,0.15,-0.44,10.47,96.6,-61
3335,40.863,0.25,1.28,-1.18,0.15,-0.49,10.47,96.6,-61
3336,40.946,0.31,1.31,-1.18,0.20,-0.54,11.12,96.8,-68
3337,41.030,0.28,1.24,-1.13,0.20,-0.49,11.12,96.8,-68
3338,41.113,0.29,1.29,-1.13,0.24,-0.59,11.12,96.8,-68
3339,41.197,0.29,1.22,-1.08,0.20,-0.54,10.47,96.8,-68
3340,41.280,0.28,1.23,-1.13,0.24,-0.44,10.47,96.8,-68
3341,41.364,0.29,1.34,-1.22,0.24,-0.49,10.47,96.8,-68
3342,41.448,0.28,1.24,-1.13,0.15,-0.49,11.12,97.0,-69
3343,41.531,0.25,1.29,-1.18,0.20,-0.49,11.12,97.0,-69
3344,41.615,0.32,1.24,-1.13,0.15,-0.49,11.12,97.0,-69
3345,41.698,0.32,1.24,-1.13,0.15,-0.49,10.47,97.0,-69
3346,41.782,0.32,1.22,-1.13,0.15,-0.44,10.47,97.0,-69
3347,41.865,0.37,1.23,-1.13,0.20,-0.44,10.47,97.0,-69
3348,41.966,0.40,1.29,-1.18,0.20,-0.49,11.10,97.2,-68
3349,42.066,0.43,1.26,-1.13,0.15,-0.54,11.08,97.2,-68
3350,42.166,0.44,1.25,-1.13,0.24,-0.49,11.06,97.2,-68
3351,42.266,0.44,1.30,-1.18,0.24,-0.49,10.41,97.2,-68
3352,42.366,0.32,1.22,-1.13,0.24,-0.39,10.41,97.2,-68
3353,42.467,0.28,1.24,-1.13,0.20,-0.49,10.41,97.2,-68
3354,42.550,0.30,1.23,-1.13,0.29,-0.39,11.08,97.3,-69
3355,42.634,0.30,1.19,-1.13,0.20,-0.34,11.10,97.3,-69
3356,42.717,0.30,1.20,-1.13,0.15,-0.39,11.12,97.3,-69
3357,42.801,0.30,1.25,-1.13,0.10,-0.54,10.47,97.3,-69
3358,42.884,0.22,1.24,-1.13,0.15,-0.49,10.47,97.3,-69
3359,42.968,0.28,1.28,-1.18,0.10,-0.49,10.47,97.3,-69
3366,43.135,0.33,1.19,-1.08,0.10,-0.49,11.02,92.1,-68
3367,43.301,0.28,1.28,-1.18,0.10,-0.49,10.92,92.1,-68
3368,43.468,0.29,1.24,-1.13,0.15,-0.49,10.83,92.1,-68
3369,43.635,0.29,1.28,-1.18,0.15,-0.49,10.10,92.1,-68
3370,43.802,0.26,1.19,-1.13,0.20,-0.34,10.01,92.1,-68
3371,43.968,0.21,1.30,-1.18,0.24,-0.49,9.93,92.1,-68
3372,44.068,0.29,1.23,-1.13,0.10,-0.49,10.53,92.6,-64
3373,44.169,0.33,1.28,-1.18,0.15,-0.49,10.51,92.6,-64
3374,44.269,0.41,1.17,-1.13,0.15,-0.29,10.49,92.6,-64
3375,44.369,0.41,1.19,-1.13,0.20,-0.34,9.86,92.6,-64
3376,44.469,0.32,1.24,-1.13,0.20,-0.49,9.84,92.6,-64
3377,44.569,0.25,1.22,-1.13,0.15,-0.44,9.83,92.6,-64
3378,44.653,0.32,1.28,-1.18,0.15,-0.49,10.44,93.0,-63
3379,44.737,0.33,1.22,-1.13,0.15,-0.44,10.44,93.0,-63
3380,44.820,0.33,1.23,-1.13,0.24,-0.44,10.44,93.0,-63
3381,44.904,0.33,1.28,-1.18,0.24,-0.44,9.84,93.0,-63
3382,44.987,0.31,1.25,-1.18,0.15,-0.39,9.86,93.0,-63
3383,45.071,0.33,1.28,-1.18,0.15,-0.49,9.88,93.0,-63
3384,45.154,0.33,1.27,-1.18,0.20,-0.44,10.51,93.4,-64
3385,45.238,0.28,1.32,-1.22,0.24,-0.44,10.53,93.4,-64
3386,45.321,0.26,1.28,-1.18,0.15,-0.49,10.55,93.4,-64
3387,45.405,0.26,1.17,-1.08,0.15,-0.44,10.01,93.4,-64
3388,45.489,0.20,1.24,-1.13,0.15,-0.49,10.10,93.4,-64
3389,45.572,0.18,1.22,-1.13,0.15,-0.44,10.19,93.4,-64
3390,45.656,0.28,1.24,-1.13,0.15,-0.49,10.92,93.8,-66
3391,45.739,0.30,1.26,-1.13,0.15,-0.54,11.02,93.8,-66
3392,45.823,0.26,1.26,-1.18,0.15,-0.44,11.12,93.8,-66
3393,45.906,0.26,1.29,-1.13,0.20,-0.59,10.47,93.8,-66
3394,45.990,0.21,1.26,-1.13,0.20,-0.54,10.47,93.8,-66
3395,46.074,0.28,1.19,-1.13,0.20,-0.34,10.47,93.8,-66
3396,46.174,0.27,1.30,-1.18,0.15,-0.54,11.10,94.2,-66
3397,46.274,0.23,1.26,-1.18,0.15,-0.44,11.08,94.2,-66
3398,46.374,0.26,1.26,-1.18,0.15,-0.44,11.06,94.2,-66
3399,46.474,0.26,1.25,-1.13,0.24,-0.49,10.41,94.2,-66
3400,46.575,0.25,1.20,-1.08,0.20,-0.49,10.41,94.2,-66
3401,46.675,0.25,1.21,-1.13,0.20,-0.39,10.41,94.2,-66
3402,46.758,0.25,1.24,-1.13,0.15,-0.49,11.08,94.5,-65
3403,46.842,0.29,1.21,-1.13,0.20,-0.39,11.10,94.5,-65
3404,46.925,0.26,1.28,-1.18,0.15,-0.49,11.12,94.5,-65
3405,47.009,0.26,1.29,-1.18,0.20,-0.49,10.47,94.5,-65
3406,47.093,0.22,1.20,-1.13,0.15,-0.39,10.47,94.5,-65
3407,47.176,0.27,1.33,-1.22,0.20,-0.49,10.47,94.5,-65
3408,47.260,0.38,1.24,-1.13,0.15,-0.49,11.12,94.8,-64
3409,47.343,0.34,1.25,-1.18,0.20,-0.39,11.12,94.8,-64
3410,47.427,0.29,1.24,-1.13,0.20,-0.49,11.12,94.8,-64
3411,47.510,0.29,1.23,-1.13,0.20,-0.44,10.47,94.8,-64
3412,47.594,0.25,1.23,-1.13,0.10,-0.49,10.47,94.8,-64
3413,47.678,0.17,1.29,-1.18,0.20,-0.49,10.47,94.8,-64
3414,47.761,0.29,1.28,-1.18,0.15,-0.49,11.12,95.1,-64
3415,47.845,0.26,1.28,-1.18,0.24,-0.44,11.12,95.1,-64
3416,47.928,0.30,1.27,-1.18,0.20,-0.44,11.12,95.1,-64
3417,48.012,0.30,1.24,-1.13,0.15,-0.49,10.47,95.1,-64
3418,48.095,0.31,1.22,-1.13,0.15,-0.44,10.47,95.1,-64
3419,48.179,0.24,1.21,-1.13,0.10,-0.44,10.47,95.1,-64
3420,48.279,0.28,1.28,-1.18,0.15,-0.49,11.10,95.4,-64
3421,48.379,0.20,1.26,-1.13,0.15,-0.54,11.08,95.4,-64
3422,48.480,0.23,1.28,-1.18,0.15,-0.49,11.06,95.4,-64
3423,48.580,0.23,1.28,-1.18,0.15,-0.49,10.41,95.4,-64
3424,48.680,0.14,1.24,-1.13,0.20,-0.49,10.41,95.4,-64
3425,48.780,0.18,1.22,-1.13,0.15,-0.44,10.41,95.4,-64
3426,48.864,0.26,1.22,-1.13,0.15,-0.44,11.08,95.7,-73
3427,48.947,0.27,1.22,-1.13,0.15,-0.44,11.10,95.7,-73
3428,49.031,0.24,1.26,-1.18,0.15,-0.44,11.12,95.7,-73
3429,49.114,0.24,1.27,-1.18,0.20,-0.44,10.47,95.7,-73
3430,49.198,0.19,1.26,-1.13,0.15,-0.54,10.47,95.7,-73
3431,49.282,0.17,1.22,-1.13,0.15,-0.44,10.47,95.7,-73
3432,49.365,0.23,1.20,-1.13,0.15,-0.39,11.12,95.9,-70
3433,49.449,0.24,1.29,-1.18,0.20,-0.49,11.12,95.9,-70
3434,49.532,0.26,1.20,-1.13,0.15,-0.39,11.12,95.9,-70
3435,49.616,0.26,1.22,-1.13,0.15,-0.44,10.47,95.9,-70
3436,49.699,0.23,1.27,-1.18,0.20,-0.44,10.47,95.9,-70
3437,49.783,0.17,1.19,-1.08,0.10,-0.49,10.47,95.9,-70
3438,49.867,0.18,1.27,-1.18,0.20,-0.44,11.12,96.2,-70
3439,49.950,0.09,1.29,-1.18,0.20,-0.49,11.12,96.2,-70
3440,50.034,0.12,1.26,-1.18,0.15,-0.44,11.12,96.2,-70
3441,50.117,0.12,1.26,-1.18,0.10,-0.44,10.47,96.2,-70
3442,50.201,0.09,1.24,-1.13,0.15,-0.49,10.47,96.2,-70
3443,50.284,0.17,1.22,-1.13,0.15,-0.44,10.47,96.2,-70
3444,50.385,0.29,1.24,-1.13,0.15,-0.49,11.10,96.4,-71
3445,50.485,0.26,1.26,-1.18,0.15,-0.44,11.08,96.4,-71
3446,50.585,0.25,1.19,-1.13,0.15,-0.34,11.06,96.4,-71
3447,50.685,0.25,1.24,-1.13,0.15,-0.49,10.39,96.4,-71
3448,50.785,0.26,1.22,-1.13,0.15,-0.44,10.37,96.4,-71
3449,50.886,0.28,1.27,-1.18,0.20,-0.44,10.36,96.4,-71
3450,50.969,0.41,1.28,-1.18,0.10,-0.49,11.00,96.6,-72
3451,51.053,0.44,1.24,-1.13,0.15,-0.49,11.00,96.6,-72
3452,51.136,0.32,1.26,-1.18,0.15,-0.44,11.00,96.6,-72
3453,51.220,0.32,1.20,-1.13,0.15,-0.39,10.37,96.6,-72
3454,51.303,0.29,1.22,-1.13,0.15,-0.44,10.39,96.6,-72
3455,51.387,0.31,1.24,-1.13,0.20,-0.49,10.41,96.6,-72
3456,51.470,0.35,0.71,-0.39,-0.05,-0.59,11.08,96.8,-89
3457,51.554,0.27,1.51,-1.42,0.15,-0.49,11.10,96.8,-89
3458,51.638,0.29,1.66,-1.62,0.05,-0.39,11.12,96.8,-89
3459,51.721,0.29,0.93,-0.83,0.10,-0.39,10.47,96.8,-89
3460,51.805,0.12,1.80,-1.67,0.69,0.05,10.47,96.8,-89
3461,51.888,0.16,1.51,-1.03,-0.39,-1.03,10.47,96.8,-89
3462,51.972,0.19,1.28,-1.18,0.10,-0.49,11.12,97.0,-76
3463,52.055,0.14,1.23,-1.13,0.20,-0.44,11.12,97.0,-76
3464,52.139,0.14,1.22,-1.08,0.20,-0.54,11.12,97.0,-76
3465,52.223,0.14,1.33,-1.18,0.29,-0.54,10.56,97.0,-76
3466,52.306,0.08,1.25,-1.18,0.24,-0.34,10.66,97.0,-76
3467,52.390,0.08,1.25,-1.13,0.24,-0.49,10.76,97.0,-76
3468,52.490,0.16,1.30,-1.18,0.15,-0.54,11.52,97.2,-74
3469,52.590,0.18,1.28,-1.08,0.24,-0.64,11.61,97.2,-74
3470,52.690,0.21,1.25,-1.08,0.39,-0.49,11.69,97.2,-74
3471,52.790,0.21,1.32,-1.18,0.44,-0.39,11.01,97.2,-74
3472,52.891,0.25,1.23,-1.13,0.44,-0.24,11.01,97.2,-74
3473,52.991,0.29,1.23,-1.18,0.34,-0.15,11.01,97.2,-74
3474,53.074,0.30,1.27,-1.22,0.20,-0.29,11.72,97.3,-90
3475,53.158,0.24,1.18,-1.13,0.20,-0.29,11.74,97.3,-90
3476,53.242,0.28,1.19,-1.13,0.34,-0.20,11.76,97.3,-90
3477,53.325,0.28,1.37,-1.32,0.34,-0.15,11.07,97.3,-90
3478,53.409,0.26,1.32,-1.27,0.29,-0.15,11.07,97.3,-90
3479,53.492,0.37,1.24,-1.18,0.20,-0.34,11.07,97.3,-90
3480,53.576,0.36,1.22,-1.18,0.24,-0.20,11.76,97.5,-76
3481,53.659,0.31,1.12,-1.08,0.00,-0.29,11.76,97.5,-76
3482,53.743,0.29,0.99,-0.98,0.05,-0.10,11.76,97.5,-76
3483,53.826,0.29,1.08,-0.98,0.24,-0.39,11.07,97.5,-76
3484,53.910,0.21,1.33,-1.18,0.39,-0.49,11.07,97.5,-76
3485,53.994,0.22,1.21,-1.13,0.29,-0.34,11.07,97.5,-76
3486,54.077,0.29,1.31,-1.22,0.15,-0.44,11.76,97.6,-77
3487,54.161,0.31,1.10,-1.08,0.10,-0.20,11.76,97.6,-77
3488,54.244,0.34,0.95,-0.93,0.15,-0.15,11.76,97.6,-77
3489,54.328,0.34,1.17,-1.13,0.15,-0.29,11.07,97.6,-77
3490,54.411,0.35,1.26,-1.18,0.24,-0.39,11.07,97.6,-77
3491,54.495,0.39,1.34,-1.27,0.24,-0.34,11.07,97.6,-77
3492,54.595,0.41,1.16,-1.08,0.34,-0.24,11.74,97.8,-87
3493,54.695,0.41,1.14,-1.08,0.24,-0.29,11.72,97.8,-87
3494,54.796,0.36,1.22,-1.13,0.24,-0.39,11.69,97.8,-87
3495,54.896,0.36,1.17,-1.13,0.15,-0.29,11.01,97.8,-87
3496,54.996,0.31,1.24,-1.18,0.24,-0.29,11.01,97.8,-87
3497,55.096,0.33,1.20,-1.13,0.34,-0.24,11.01,97.8,-87
3498,55.180,0.37,1.25,-1.18,0.34,-0.24,11.72,97.9,-79
3499,55.263,0.32,1.21,-1.13,0.29,-0.34,11.74,97.9,-79
3500,55.347,0.27,1.18,-1.13,0.29,-0.20,11.76,97.9,-79
3501,55.431,0.27,1.20,-1.13,0.24,-0.34,11.07,97.9,-79
3502,55.514,0.32,1.22,-1.18,0.15,-0.29,11.07,97.9,-79
3503,55.598,0.28,1.12,-1.08,0.20,-0.24,11.07,97.9,-79
3504,55.681,0.34,1.20,-1.13,0.24,-0.34,11.76,98.0,-68
3505,55.765,0.32,1.26,-1.18,0.34,-0.29,11.76,98.0,-68
3506,55.848,0.29,1.25,-1.18,0.24,-0.34,11.76,98.0,-68
3507,55.932,0.29,1.21,-1.13,0.20,-0.39,11.07,98.0,-68
3508,56.016,0.24,1.27,-1.18,0.20,-0.44,11.07,98.0,-68
3509,56.099,0.29,1.30,-1.22,0.24,-0.34,11.07,98.0,-68
3510,56.183,0.35,1.25,-1.18,0.24,-0.34,11.76,98.1,-67
3511,56.266,0.32,1.20,-1.08,0.29,-0.44,11.76,98.1,-67
3512,56.350,0.34,1.19,-1.13,0.20,-0.34,11.76,98.1,-67
3513,56.433,0.34,1.21,-1.13,0.20,-0.39,11.07,98.1,-67
3514,56.517,0.36,1.16,-1.08,0.20,-0.39,11.07,98.1,-67
3515,56.600,0.35,1.21,-1.13,0.20,-0.39,11.07,98.1,-67
3516,56.684,0.46,1.29,-1.22,0.20,-0.34,11.76,98.3,-72
3517,56.768,0.36,1.24,-1.18,0.20,-0.34,11.76,98.3,-72
3518,56.851,0.37,1.20,-1.13,0.15,-0.39,11.76,98.3,-72
3519,56.935,0.37,1.25,-1.18,0.24,-0.34,11.09,98.3,-72
3520,57.019,0.32,1.24,-1.13,0.29,-0.44,11.11,98.3,-72
3521,57.103,0.37,1.16,-1.13,0.24,-0.15,11.13,98.3,-72
3522,57.203,0.42,1.17,-1.13,0.15,-0.29,11.83,98.4,-80
3523,57.303,0.33,1.25,-1.18,0.24,-0.34,11.83,98.4,-80
3524,57.403,0.35,1.26,-1.18,0.24,-0.39,11.83,98.4,-80
3525,57.503,0.35,1.24,-1.18,0.24,-0.29,11.11,98.4,-80
3526,57.604,0.25,1.14,-1.08,0.24,-0.29,11.09,98.4,-80
3527,57.704,-0.62,0.64,-0.59,0.10,-0.24,11.07,98.4,-80
3528,57.787,-6.68,1.25,-1.18,0.34,-0.24,11.76,98.5,-81
3529,57.871,-4.87,1.24,-1.18,0.29,-0.24,11.76,98.5,-81
3530,57.954,-3.62,1.29,-1.22,0.29,-0.29,11.76,98.5,-81
3531,58.037,-3.62,1.16,-1.08,0.34,-0.24,11.07,98.5,-81
3532,58.121,-2.68,1.25,-1.18,0.34,-0.24,11.07,98.5,-81
3533,58.204,-1.98,1.24,-1.18,0.29,-0.24,11.07,98.5,-81
3534,58.288,-1.41,1.29,-1.18,0.29,-0.44,11.76,98.5,-73
3535,58.371,-0.99,1.30,-1.18,0.34,-0.44,11.76,98.5,-73
3536,58.455,-0.64,1.20,-1.13,0.24,-0.34,11.76,98.5,-73
3537,58.538,-0.64,1.20,-1.13,0.29,-0.29,11.07,98.5,-73
3538,58.622,-0.52,1.27,-1.18,0.29,-0.39,11.07,98.5,-73
3539,58.706,-0.36,1.21,-1.13,0.34,-0.29,11.07,98.5,-73
3540,58.789,-0.15,1.23,-1.13,0.34,-0.34,11.76,98.6,-67
3541,58.873,0.00,1.20,-1.13,0.29,-0.29,11.76,98.6,-67
3542,58.956,0.13,1.26,-1.18,0.29,-0.34,11.76,98.6,-67
3543,59.040,0.13,1.21,-1.13,0.20,-0.39,11.09,98.6,-67
3544,59.123,0.12,1.26,-1.18,0.29,-0.34,11.11,98.6,-67
3545,59.207,0.22,1.23,-1.13,0.24,-0.44,11.13,98.6,-67
3546,59.307,0.30,1.21,-1.13,0.34,-0.29,11.83,98.7,-66
3547,59.407,0.24,1.24,-1.13,0.34,-0.39,11.83,98.7,-66
3548,59.508,0.27,1.21,-1.13,0.29,-0.34,11.83,98.7,-66
3549,59.608,0.27,1.24,-1.13,0.29,-0.44,11.11,98.7,-66
3550,59.708,0.19,1.25,-1.18,0.29,-0.29,11.09,98.7,-66
3551,59.808,0.23,1.20,-1.13,0.29,-0.29,11.07,98.7,-66
3552,59.892,0.28,1.21,-1.13,0.34,-0.29,11.76,98.8,-67
3553,59.975,0.29,1.19,-1.13,0.24,-0.29,11.76,98.8,-67
3554,60.058,0.28,1.23,-1.13,0.29,-0.39,11.76,98.8,-67
3555,60.142,0.28,1.20,-1.08,0.34,-0.39,11.07,98.8,-67
3556,60.225,0.27,1.26,-1.18,0.29,-0.34,11.07,98.8,-67
3557,60.309,0.31,1.20,-1.13,0.24,-0.34,11.07,98.8,-67
3558,60.392,0.42,1.21,-1.13,0.29,-0.34,11.76,98.9,-67
3559,60.476,0.37,1.18,-1.13,0.24,-0.24,11.76,98.9,-67
3560,60.559,0.33,1.19,-1.13,0.20,-0.34,11.76,98.9,-67
3561,60.643,0.33,1.26,-1.18,0.29,-0.34,11.07,98.9,-67
3562,60.726,0.29,1.23,-1.13,0.29,-0.39,11.07,98.9,-67
3563,60.810,0.35,1.16,-1.08,0.29,-0.29,11.07,98.9,-67
3564,60.893,0.41,1.20,-1.13,0.24,-0.34,11.76,98.9,-71
3565,60.977,0.38,1.25,-1.18,0.29,-0.29,11.76,98.9,-71
3566,61.061,0.31,1.23,-1.18,0.24,-0.24,11.76,98.9,-71
3567,61.144,0.31,1.25,-1.18,0.24,-0.34,11.09,98.9,-71
3568,61.228,0.33,1.19,-1.13,0.24,-0.29,11.11,98.9,-71
3569,61.311,0.32,1.31,-1.22,0.24,-0.39,11.14,98.9,-71
3570,61.411,0.42,1.24,-1.18,0.20,-0.34,11.83,99.0,-70
3571,61.512,0.33,1.27,-1.18,0.29,-0.39,11.83,99.0,-70
3572,61.612,0.29,1.22,-1.13,0.24,-0.39,11.83,99.0,-70
3573,61.712,0.29,1.22,-1.13,0.24,-0.39,11.11,99.0,-70
3574,61.812,0.21,1.27,-1.18,0.29,-0.39,11.09,99.0,-70
3575,61.912,0.24,1.22,-1.13,0.24,-0.39,11.07,99.0,-70
3576,61.996,0.36,1.24,-1.18,0.29,-0.24,11.76,99.0,-66
3577,62.080,0.31,1.25,-1.18,0.24,-0.34,11.76,99.0,-66
3578,62.163,0.22,1.20,-1.13,0.24,-0.34,11.76,99.0,-66
3579,62.247,0.22,1.21,-1.13,0.29,-0.34,11.07,99.0,-66
3580,62.330,0.21,1.27,-1.18,0.34,-0.34,11.07,99.0,-66
3581,62.414,0.21,1.25,-1.18,0.24,-0.34,11.07,99.0,-66
3582,62.497,0.31,1.21,-1.13,0.29,-0.34,11.76,99.1,-66
3583,62.581,0.33,1.26,-1.18,0.24,-0.39,11.76,99.1,-66
3584,62.665,0.37,1.26,-1.18,0.29,-0.34,11.76,99.1,-66
3585,62.748,0.37,1.27,-1.18,0.29,-0.39,11.07,99.1,-66
3586,62.832,0.34,1.28,-1.22,0.24,-0.29,11.07,99.1,-66
3587,62.915,0.33,1.24,-1.18,0.24,-0.29,11.07,99.1,-66
3588,62.999,0.39,1.22,-1.18,0.20,-0.24,11.76,99.2,-68
3589,63.082,0.47,1.20,-1.13,0.24,-0.34,11.76,99.2,-68
3590,63.166,0.38,1.19,-1.13,0.24,-0.29,11.76,99.2,-68
3591,63.249,0.38,1.25,-1.18,0.24,-0.34,11.09,99.2,-68
3592,63.333,0.33,1.21,-1.13,0.29,-0.34,11.11,99.2,-68
3593,63.417,0.34,1.24,-1.13,0.34,-0.39,11.14,99.2,-68
3594,63.517,0.34,1.23,-1.18,0.24,-0.24,11.83,99.2,-65
3595,63.617,0.30,1.19,-1.13,0.20,-0.34,11.83,99.2,-65
3596,63.717,0.34,1.21,-1.13,0.29,-0.34,11.83,99.2,-65
3597,63.817,0.34,1.20,-1.13,0.24,-0.34,11.11,99.2,-65
3598,63.918,0.23,1.23,-1.13,0.29,-0.39,11.09,99.2,-65
3599,64.018,0.28,1.23,-1.13,0.29,-0.39,11.07,99.2,-65
3600,64.101,0.34,1.30,-1.22,0.24,-0.34,11.76,99.3,-66
3601,64.185,0.28,1.26,-1.18,0.29,-0.34,11.76,99.3,-66
3602,64.268,0.18,1.32,-1.22,0.34,-0.34,11.76,99.3,-66
3603,64.352,0.18,1.22,-1.13,0.24,-0.39,11.07,99.3,-66
3604,64.435,0.17,1.18,-1.13,0.24,-0.24,11.07,99.3,-66
3605,64.519,0.18,1.26,-1.18,0.29,-0.34,11.07,99.3,-66
3606,64.603,0.25,1.20,-1.13,0.29,-0.29,11.76,99.3,-65
3607,64.686,0.24,1.21,-1.13,0.29,-0.34,11.76,99.3,-65
3608,64.770,0.24,1.20,-1.13,0.24,-0.34,11.76,99.3,-65
3609,64.853,0.24,1.17,-1.13,0.20,-0.24,11.07,99.3,-65
3610,64.937,0.19,1.21,-1.13,0.29,-0.34,11.07,99.3,-65
3611,65.021,0.22,1.26,-1.18,0.29,-0.34,11.07,99.3,-65
3612,65.104,0.32,1.25,-1.18,0.29,-0.29,11.76,99.3,-61
3613,65.188,0.29,1.21,-1.13,0.34,-0.29,11.76,99.3,-61
3614,65.271,0.29,1.33,-1.22,0.29,-0.44,11.76,99.3,-61
3615,65.355,0.29,1.24,-1.18,0.24,-0.29,11.07,99.3,-61
3616,65.438,0.27,1.20,-1.13,0.24,-0.34,11.07,99.3,-61
3617,65.522,0.27,1.21,-1.13,0.29,-0.34,11.07,99.3,-61
3618,65.622,0.37,1.23,-1.13,0.29,-0.39,11.74,99.4,-63
3619,65.722,0.29,1.29,-1.22,0.34,-0.20,11.72,99.4,-63
3620,65.822,0.28,1.20,-1.13,0.34,-0.24,11.70,99.4,-63
3621,65.923,0.28,1.24,-1.18,0.24,-0.29,11.01,99.4,-63
3622,66.023,0.22,1.24,-1.18,0.20,-0.34,11.01,99.4,-63
3623,66.123,0.28,1.25,-1.18,0.24,-0.34,11.01,99.4,-63
3624,66.207,0.38,1.21,-1.13,0.29,-0.34,11.72,99.4,-65
3625,66.290,0.34,1.16,-1.08,0.29,-0.29,11.74,99.4,-65
3626,66.374,0.32,1.26,-1.18,0.29,-0.34,11.76,99.4,-65
3627,66.457,0.32,1.23,-1.13,0.29,-0.39,11.07,99.4,-65
3628,66.541,0.33,1.18,-1.13,0.24,-0.24,11.07,99.4,-65
3629,66.624,0.36,1.32,-1.22,0.39,-0.29,11.07,99.4,-65
3630,66.708,0.41,1.26,-1.18,0.24,-0.39,11.76,99.4,-66
3631,66.792,0.35,1.25,-1.18,0.15,-0.39,11.76,99.4,-66
3632,66.875,0.37,1.22,-1.18,0.10,-0.29,11.76,99.4,-66
3633,66.959,0.37,1.22,-1.18,0.15,-0.29,11.07,99.4,-66
3634,67.042,0.27,1.21,-1.18,0.15,-0.24,11.07,99.4,-66
3635,67.126,0.34,1.30,-1.22,0.24,-0.34,11.07,99.4,-66
3636,67.209,0.38,1.25,-1.18,0.20,-0.39,11.76,99.5,-67
3637,67.293,0.29,1.25,-1.18,0.24,-0.34,11.76,99.5,-67
3638,67.377,0.25,1.22,-1.13,0.24,-0.39,11.76,99.5,-67
3639,67.460,0.25,1.24,-1.18,0.20,-0.34,11.07,99.5,-67
3640,67.544,0.25,1.25,-1.18,0.24,-0.34,11.07,99.5,-67
3641,67.627,0.27,1.19,-1.13,0.20,-0.34,11.07,99.5,-67
3648,67.811,0.29,1.30,-1.18,0.24,-0.49,11.63,94.0,-69
3649,67.994,0.25,1.26,-1.18,0.34,-0.29,11.50,94.0,-69
3650,68.177,0.28,1.23,-1.03,0.20,-0.64,11.37,94.0,-69
3651,68.361,0.28,1.20,-1.13,0.29,-0.29,10.60,94.0,-69
3652,68.544,0.28,1.25,-1.18,0.34,-0.24,10.51,94.0,-69
3653,68.727,0.28,1.23,-1.18,0.34,-0.15,10.41,94.0,-69
3654,68.811,0.35,1.24,-1.22,0.15,-0.10,11.08,94.4,-66
3655,68.894,0.33,1.19,-1.18,0.10,-0.15,11.10,94.4,-66
3656,68.978,0.42,1.22,-1.18,0.10,-0.29,11.12,94.4,-66
3657,69.062,0.42,1.11,-1.08,0.15,-0.24,10.47,94.4,-66
3658,69.145,0.37,1.17,-1.13,0.20,-0.24,10.47,94.4,-66
3659,69.229,0.48,1.26,-1.22,0.20,-0.20,10.47,94.4,-66
3660,69.312,0.41,1.19,-1.13,0.15,-0.34,11.12,94.7,-66
3661,69.396,0.33,1.23,-1.18,0.15,-0.34,11.12,94.7,-66
3662,69.479,0.41,1.23,-1.13,0.34,-0.34,11.12,94.7,-66
3663,69.563,0.41,1.24,-1.13,0.39,-0.34,10.47,94.7,-66
3664,69.647,0.32,1.17,-1.08,0.44,-0.15,10.47,94.7,-66
3665,69.730,0.34,1.24,-1.18,0.34,-0.20,10.47,94.7,-66
3666,69.830,0.36,1.20,-1.13,0.24,-0.34,11.10,95.0,-64
3667,69.930,0.29,1.26,-1.18,0.29,-0.34,11.08,95.0,-64
3668,70.030,0.31,1.21,-1.13,0.34,-0.29,11.06,95.0,-64
3669,70.130,0.31,1.32,-1.22,0.34,-0.34,10.39,95.0,-64
3670,70.230,0.29,1.20,-1.13,0.29,-0.29,10.37,95.0,-64
3671,70.330,0.34,1.27,-1.18,0.34,-0.34,10.36,95.0,-64
3672,70.414,0.41,1.22,-1.13,0.24,-0.39,11.00,95.3,-66
3673,70.497,0.39,1.23,-1.18,0.24,-0.24,11.00,95.3,-66
3674,70.581,0.34,1.25,-1.18,0.29,-0.29,11.00,95.3,-66
3675,70.665,0.34,1.19,-1.13,0.29,-0.24,10.37,95.3,-66
3676,70.748,0.32,1.23,-1.13,0.29,-0.39,10.39,95.3,-66
3677,70.832,0.33,1.21,-1.13,0.29,-0.34,10.41,95.3,-66
3678,70.915,0.27,1.26,-1.22,0.20,-0.20,11.08,95.6,-67
3679,70.999,0.24,1.18,-1.13,0.24,-0.24,11.10,95.6,-67
3680,71.082,0.22,1.22,-1.18,0.20,-0.24,11.12,95.6,-67
3681,71.166,0.22,1.23,-1.18,0.20,-0.29,10.47,95.6,-67
3682,71.250,0.21,1.25,-1.18,0.24,-0.34,10.47,95.6,-67
3683,71.333,0.29,1.18,-1.13,0.24,-0.24,10.47,95.6,-67
3684,71.417,0.31,1.34,-1.27,0.10,-0.39,11.12,95.8,-68
3685,71.500,0.37,1.26,-1.18,0.15,-0.44,11.12,95.8,-68
3686,71.584,0.35,1.28,-1.18,0.15,-0.49,11.12,95.8,-68
3687,71.667,0.35,1.22,-1.18,0.29,-0.10,10.47,95.8,-68
3688,71.751,0.29,1.09,-1.03,0.29,-0.20,10.47,95.8,-68
3689,71.835,0.25,1.09,-1.03,0.34,-0.15,10.47,95.8,-68
3690,71.935,0.28,1.23,-1.18,0.24,-0.24,11.10,96.1,-69
3691,72.035,0.29,1.17,-1.13,0.24,-0.20,11.08,96.1,-69
3692,72.135,0.31,1.19,-1.13,0.20,-0.34,11.06,96.1,-69
3693,72.235,0.31,1.23,-1.18,0.29,-0.20,10.39,96.1,-69
3694,72.336,0.24,1.20,-1.13,0.29,-0.29,10.37,96.1,-69
3695,72.436,0.29,1.24,-1.18,0.24,-0.29,10.36,96.1,-69
3696,72.519,0.29,1.23,-1.18,0.15,-0.34,11.00,96.3,-68
3697,72.603,0.29,1.23,-1.18,0.29,-0.20,11.00,96.3,-68
3698,72.686,0.29,1.26,-1.18,0.39,-0.24,11.00,96.3,-68
3699,72.770,0.29,1.21,-1.13,0.39,-0.20,10.37,96.3,-68
3700,72.854,0.32,1.19,-1.13,0.24,-0.29,10.39,96.3,-68
3701,72.937,0.35,1.26,-1.18,0.29,-0.34,10.41,96.3,-68
3702,73.021,0.39,1.20,-1.13,0.29,-0.29,11.08,96.5,-68
3703,73.104,0.40,1.20,-1.13,0.24,-0.34,11.10,96.5,-68
3704,73.188,0.39,1.20,-1.13,0.24,-0.34,11.12,96.5,-68
3705,73.271,0.39,1.25,-1.18,0.29,-0.29,10.47,96.5,-68
3706,73.355,0.38,1.14,-1.08,0.24,-0.29,10.47,96.5,-68
3707,73.439,0.37,1.20,-1.13,0.29,-0.29,10.47,96.5,-68
3708,73.522,0.41,1.17,-1.13,0.20,-0.24,11.12,96.7,-68
3709,73.605,0.41,1.17,-1.13,0.20,-0.24,11.12,96.7,-68
3710,73.689,0.40,1.30,-1.22,0.34,-0.24,11.12,96.7,-68
3711,73.772,0.40,1.23,-1.18,0.29,-0.20,10.47,96.7,-68
3712,73.856,0.40,1.18,-1.13,0.24,-0.24,10.47,96.7,-68
3713,73.939,0.42,1.19,-1.13,0.24,-0.29,10.47,96.7,-68
3714,74.039,0.49,1.23,-1.18,0.24,-0.24,11.10,96.9,-67
3715,74.139,0.38,1.26,-1.18,0.34,-0.29,11.08,96.9,-67
3716,74.240,0.42,1.25,-1.18,0.24,-0.34,11.06,96.9,-67
3717,74.340,0.42,1.17,-1.13,0.24,-0.20,10.39,96.9,-67
3718,74.440,0.30,1.26,-1.18,0.29,-0.34,10.38,96.9,-67
3719,74.540,0.29,1.23,-1.18,0.20,-0.29,10.36,96.9,-67
3720,74.624,0.30,1.23,-1.18,0.29,-0.20,11.00,97.1,-66
3721,74.707,0.29,1.17,-1.13,0.24,-0.20,11.00,97.1,-66
3722,74.791,0.30,1.16,-1.13,0.20,-0.20,11.00,97.1,-66
3723,74.874,0.30,1.13,-1.08,0.20,-0.29,10.38,97.1,-66
3724,74.958,0.33,1.25,-1.18,0.29,-0.29,10.39,97.1,-66
3725,75.042,0.40,1.23,-1.13,0.34,-0.34,10.41,97.1,-66
3726,75.125,0.37,1.21,-1.18,0.15,-0.24,11.08,97.3,-66
3727,75.209,0.35,1.23,-1.18,0.24,-0.24,11.10,97.3,-66
3728,75.292,0.34,1.27,-1.22,0.24,-0.24,11.12,97.3,-66
3729,75.376,0.34,1.25,-1.18,0.29,-0.29,10.47,97.3,-66
3730,75.459,0.29,1.17,-1.13,0.24,-0.20,10.47,97.3,-66
3731,75.543,0.32,1.22,-1.18,0.24,-0.20,10.47,97.3,-66
3732,75.627,0.47,1.24,-1.18,0.29,-0.24,11.12,97.4,-66
3733,75.710,0.42,1.18,-1.13,0.24,-0.24,11.12,97.4,-66
3734,75.794,0.49,1.27,-1.22,0.24,-0.24,11.12,97.4,-66
3735,75.877,0.49,1.18,-1.13,0.24,-0.24,10.47,97.4,-66
3736,75.961,0.45,1.16,-1.13,0.20,-0.20,10.47,97.4,-66
3737,76.044,0.51,1.23,-1.18,0.24,-0.24,10.47,97.4,-66
3738,76.145,0.52,1.23,-1.18,0.24,-0.24,11.10,97.6,-66
3739,76.245,0.51,1.18,-1.13,0.24,-0.24,11.08,97.6,-66
3740,76.345,0.49,1.26,-1.22,0.24,-0.20,11.06,97.6,-66
3741,76.445,0.49,1.19,-1.13,0.29,-0.24,10.39,97.6,-66
3742,76.545,0.40,1.24,-1.18,0.29,-0.24,10.38,97.6,-66
3743,76.646,0.40,1.24,-1.18,0.24,-0.29,10.36,97.6,-66
3744,76.729,0.45,1.19,-1.13,0.24,-0.29,11.00,97.7,-67
3745,76.813,0.40,1.23,-1.18,0.24,-0.24,11.00,97.7,-67
3746,76.896,0.41,1.19,-1.13,0.24,-0.29,11.00,97.7,-67
3747,76.980,0.41,1.24,-1.18,0.24,-0.29,10.47,97.7,-67
3748,77.063,0.37,1.19,-1.13,0.24,-0.29,10.59,97.7,-67
3749,77.147,0.33,1.24,-1.18,0.24,-0.29,10.70,97.7,-67
3750,77.231,0.43,1.25,-1.18,0.29,-0.29,11.50,97.9,-68
3751,77.314,0.41,1.18,-1.13,0.29,-0.20,11.63,97.9,-68
3752,77.398,0.41,1.21,-1.13,0.29,-0.34,11.76,97.9,-68
3753,77.481,0.41,1.17,-1.13,0.20,-0.24,11.07,97.9,-68
3754,77.565,0.30,1.24,-1.18,0.24,-0.29,11.07,97.9,-68
3755,77.648,0.31,1.23,-1.18,0.24,-0.24,11.07,97.9,-68
3756,77.732,0.36,1.24,-1.18,0.24,-0.29,11.76,98.0,-70
3757,77.816,0.36,1.16,-1.13,0.20,-0.20,11.76,98.0,-70
3758,77.899,0.43,1.24,-1.18,0.24,-0.29,11.76,98.0,-70
3759,77.983,0.43,1.18,-1.13,0.24,-0.24,11.07,98.0,-70
3760,78.066,0.38,1.25,-1.18,0.29,-0.29,11.07,98.0,-70
3761,78.150,0.36,1.24,-1.18,0.24,-0.29,11.07,98.0,-70
3768,78.333,0.43,1.18,-1.13,0.24,-0.24,11.63,92.7,-68
3769,78.516,0.41,1.19,-1.13,0.24,-0.29,11.50,92.7,-68
3770,78.700,0.40,1.23,-1.18,0.24,-0.24,11.37,92.7,-68
3771,78.883,0.40,1.24,-1.18,0.24,-0.29,10.60,92.7,-68
3772,79.066,0.38,1.22,-1.18,0.24,-0.20,10.51,92.7,-68
3773,79.250,0.39,1.23,-1.18,0.24,-0.24,10.41,92.7,-68
3774,79.333,0.40,1.24,-1.18,0.24,-0.29,11.08,93.1,-80
3775,79.417,0.37,1.28,-1.22,0.24,-0.29,11.10,93.1,-80
3776,79.500,0.41,1.23,-1.18,0.24,-0.24,11.12,93.1,-80
3777,79.583,0.41,1.25,-1.18,0.24,-0.34,10.47,93.1,-80
3778,79.667,0.34,1.24,-1.18,0.29,-0.24,10.47,93.1,-80
3779,79.750,0.31,1.18,-1.13,0.24,-0.24,10.47,93.1,-80
3780,79.834,0.34,1.23,-1.18,0.24,-0.24,11.12,93.5,-67
3781,79.917,0.26,1.16,-1.08,0.24,-0.34,11.12,93.5,-67
3782,80.001,0.25,1.22,-1.18,0.24,-0.20,11.12,93.5,-67
3783,80.085,0.25,1.24,-1.18,0.24,-0.29,10.47,93.5,-67
3784,80.168,0.16,1.26,-1.18,0.29,-0.34,10.47,93.5,-67
3785,80.252,0.14,1.24,-1.18,0.24,-0.29,10.47,93.5,-67
3786,80.335,0.16,1.19,-1.13,0.29,-0.24,11.12,93.9,-67
3787,80.419,0.19,1.26,-1.18,0.29,-0.34,11.12,93.9,-67
3788,80.502,0.20,1.19,-1.13,0.24,-0.29,11.12,93.9,-67
3789,80.586,0.20,1.29,-1.22,0.29,-0.29,10.47,93.9,-67
3790,80.669,0.12,1.18,-1.13,0.24,-0.24,10.47,93.9,-67
3791,80.753,0.14,1.17,-1.13,0.24,-0.20,10.47,93.9,-67
3792,80.853,0.18,1.17,-1.13,0.20,-0.24,11.10,94.3,-66
3793,80.953,0.17,1.16,-1.13,0.20,-0.20,11.08,94.3,-66
3794,81.054,0.23,1.18,-1.13,0.24,-0.24,11.06,94.3,-66
3795,81.154,0.23,1.28,-1.22,0.29,-0.24,10.41,94.3,-66
3796,81.254,0.19,1.23,-1.18,0.24,-0.24,10.41,94.3,-66
3797,81.354,0.19,1.17,-1.13,0.24,-0.20,10.41,94.3,-66
3798,81.438,0.26,1.23,-1.18,0.24,-0.24,11.08,94.6,-71
3799,81.521,0.28,1.16,-1.13,0.20,-0.20,11.10,94.6,-71
3800,81.605,0.28,1.21,-1.13,0.20,-0.39,11.12,94.6,-71
3801,81.688,0.28,1.19,-1.13,0.24,-0.29,10.47,94.6,-71
3802,81.772,0.28,1.22,-1.18,0.20,-0.24,10.47,94.6,-71
3803,81.856,0.32,1.19,-1.13,0.24,-0.29,10.47,94.6,-71
3804,81.939,0.38,1.21,-1.13,0.29,-0.34,11.12,94.9,-72
3805,82.023,0.34,1.24,-1.18,0.29,-0.24,11.12,94.9,-72
3806,82.106,0.33,1.22,-1.18,0.20,-0.24,11.12,94.9,-72
3807,82.190,0.33,1.18,-1.13,0.29,-0.20,10.47,94.9,-72
3808,82.273,0.33,1.19,-1.13,0.24,-0.29,10.47,94.9,-72
3809,82.357,0.30,1.19,-1.13,0.29,-0.24,10.47,94.9,-72
3810,82.441,0.39,1.16,-1.13,0.20,-0.20,11.12,95.2,-85
3811,82.524,0.27,1.25,-1.18,0.29,-0.29,11.12,95.2,-85
3812,82.608,0.34,1.24,-1.18,0.24,-0.29,11.12,95.2,-85
3813,82.691,0.34,1.18,-1.13,0.24,-0.24,10.47,95.2,-85
3814,82.775,0.35,1.24,-1.18,0.24,-0.29,10.47,95.2,-85
3815,82.858,0.39,1.23,-1.18,0.24,-0.24,10.47,95.2,-85
3816,82.958,0.46,1.17,-1.13,0.20,-0.24,11.10,95.5,-69
3817,83.058,0.38,1.17,-1.13,0.20,-0.24,11.08,95.5,-69
3818,83.159,0.39,1.20,-1.13,0.29,-0.29,11.06,95.5,-69
3819,83.259,0.39,1.18,-1.13,0.24,-0.24,10.41,95.5,-69
3820,83.359,0.32,1.27,-1.22,0.24,-0.24,10.41,95.5,-69
3821,83.459,0.32,1.24,-1.18,0.24,-0.29,10.41,95.5,-69
3822,83.542,0.43,1.18,-1.13,0.24,-0.24,11.08,95.8,-66
3823,83.626,0.37,1.27,-1.22,0.29,-0.20,11.10,95.8,-66
3824,83.709,0.36,1.24,-1.18,0.29,-0.24,11.12,95.8,-66
3825,83.793,0.36,1.24,-1.18,0.29,-0.24,10.47,95.8,-66
3826,83.876,0.27,1.25,-1.18,0.29,-0.29,10.47,95.8,-66
3827,83.960,0.28,1.24,-1.18,0.29,-0.24,10.47,95.8,-66
3828,84.044,0.32,1.28,-1.22,0.24,-0.29,11.12,96.0,-63
3829,84.127,0.31,1.25,-1.18,0.29,-0.29,11.12,96.0,-63
3830,84.211,0.28,1.18,-1.13,0.24,-0.24,11.12,96.0,-63
3831,84.294,0.28,1.23,-1.18,0.24,-0.24,10.47,96.0,-63
3832,84.378,0.32,1.25,-1.18,0.24,-0.34,10.47,96.0,-63
3833,84.461,0.33,1.23,-1.18,0.24,-0.24,10.47,96.0,-63
3834,84.545,0.37,1.24,-1.18,0.24,-0.29,11.12,96.2,-67
3835,84.629,0.35,1.13,-1.08,0.20,-0.29,11.12,96.2,-67
3836,84.712,0.33,1.17,-1.13,0.24,-0.20,11.12,96.2,-67
3837,84.796,0.33,1.17,-1.13,0.24,-0.20,10.47,96.2,-67
3838,84.879,0.30,1.20,-1.13,0.29,-0.29,10.47,96.2,-67
3839,84.963,0.33,1.21,-1.18,0.20,-0.20,10.47,96.2,-67
3840,85.063,0.37,1.24,-1.18,0.24,-0.29,11.10,96.5,-65
3841,85.163,0.33,1.23,-1.18,0.24,-0.24,11.08,96.5,-65
3842,85.263,0.37,1.12,-1.08,0.24,-0.20,11.06,96.5,-65
3843,85.364,0.37,1.19,-1.13,0.24,-0.29,10.41,96.5,-65
3844,85.464,0.42,1.18,-1.13,0.24,-0.24,10.41,96.5,-65
3845,85.564,0.45,1.18,-1.13,0.24,-0.24,10.41,96.5,-65
3846,85.648,0.48,1.25,-1.18,0.29,-0.29,11.08,96.7,-71
3847,85.731,0.50,1.25,-1.18,0.29,-0.29,11.10,96.7,-71
3848,85.815,0.47,1.23,-1.18,0.24,-0.24,11.12,96.7,-71
3849,85.898,0.47,1.23,-1.18,0.20,-0.29,10.47,96.7,-71
3850,85.982,0.35,1.18,-1.13,0.24,-0.24,10.47,96.7,-71
3851,86.065,0.44,1.23,-1.18,0.24,-0.24,10.47,96.7,-71
3852,86.149,0.42,1.23,-1.18,0.24,-0.24,11.12,96.9,-66
3853,86.233,0.33,1.24,-1.18,0.24,-0.29,11.12,96.9,-66
3854,86.316,0.36,1.18,-1.13,0.20,-0.29,11.12,96.9,-66
3855,86.400,0.36,1.22,-1.18,0.24,-0.20,10.47,96.9,-66
3856,86.483,0.28,1.27,-1.22,0.29,-0.20,10.47,96.9,-66
3857,86.567,0.31,1.23,-1.18,0.24,-0.24,10.47,96.9,-66
3858,86.650,0.34,1.24,-1.18,0.20,-0.34,11.12,97.0,-65
3859,86.734,0.37,1.25,-1.18,0.24,-0.34,11.12,97.0,-65
3860,86.817,0.41,1.22,-1.18,0.24,-0.20,11.12,97.0,-65
3861,86.901,0.41,1.24,-1.18,0.24,-0.29,10.47,97.0,-65
3862,86.984,0.36,1.24,-1.18,0.24,-0.29,10.47,97.0,-65
3863,87.067,0.40,1.24,-1.18,0.24,-0.29,10.47,97.0,-65
3864,87.168,0.46,1.29,-1.22,0.29,-0.29,11.11,97.2,-70
3865,87.268,0.42,1.19,-1.13,0.20,-0.34,11.09,97.2,-70
3866,87.368,0.39,1.23,-1.18,0.24,-0.24,11.07,97.2,-70
3867,87.468,0.39,1.18,-1.13,0.20,-0.29,10.51,97.2,-70
3868,87.568,0.39,1.18,-1.13,0.24,-0.24,10.61,97.2,-70
3869,87.669,0.40,1.24,-1.18,0.29,-0.24,10.70,97.2,-70
3870,87.752,0.45,1.22,-1.18,0.24,-0.20,11.50,97.4,-66
3871,87.836,0.41,1.23,-1.18,0.24,-0.24,11.63,97.4,-66
3872,87.919,0.38,1.16,-1.13,0.20,-0.20,11.77,97.4,-66
3873,88.003,0.38,1.17,-1.13,0.20,-0.24,11.07,97.4,-66
3874,88.086,0.31,1.20,-1.13,0.29,-0.29,11.07,97.4,-66
3875,88.170,0.31,1.18,-1.13,0.24,-0.24,11.07,97.4,-66
3876,88.253,0.39,1.19,-1.13,0.24,-0.29,11.76,97.5,-65
3877,88.337,0.38,1.16,-1.08,0.29,-0.29,11.76,97.5,-65
3878,88.421,0.33,1.18,-1.13,0.24,-0.24,11.76,97.5,-65
3879,88.504,0.33,1.23,-1.18,0.29,-0.20,11.07,97.5,-65
3880,88.588,0.31,1.28,-1.22,0.29,-0.24,11.07,97.5,-65
3881,88.671,0.32,1.24,-1.18,0.29,-0.24,11.07,97.5,-65
3882,88.755,0.37,1.18,-1.13,0.20,-0.29,11.76,97.7,-65
3883,88.839,0.38,1.27,-1.18,0.34,-0.34,11.76,97.7,-65
3884,88.922,0.41,1.25,-1.18,0.29,-0.29,11.76,97.7,-65
3885,89.006,0.41,1.22,-1.18,0.24,-0.20,11.07,97.7,-65
3886,89.089,0.38,1.24,-1.18,0.29,-0.24,11.07,97.7,-65
3887,89.173,0.33,1.20,-1.13,0.29,-0.29,11.07,97.7,-65
3888,89.273,0.37,1.19,-1.13,0.24,-0.29,11.74,97.8,-66
3889,89.373,0.44,1.19,-1.13,0.24,-0.29,11.72,97.8,-66
3890,89.473,0.41,1.23,-1.18,0.29,-0.20,11.70,97.8,-66
3891,89.574,0.41,1.21,-1.13,0.29,-0.34,11.01,97.8,-66
3892,89.674,0.37,1.23,-1.18,0.24,-0.24,11.01,97.8,-66
3893,89.774,0.37,1.18,-1.13,0.24,-0.24,11.01,97.8,-66
3894,89.858,0.44,1.17,-1.13,0.20,-0.24,11.72,97.9,-66
3895,89.941,0.42,1.24,-1.18,0.24,-0.29,11.74,97.9,-66
3896,90.025,0.44,1.25,-1.18,0.29,-0.29,11.76,97.9,-66
3897,90.108,0.44,1.25,-1.18,0.29,-0.29,11.07,97.9,-66
3898,90.192,0.42,1.23,-1.18,0.24,-0.24,11.07,97.9,-66
3899,90.275,0.49,1.19,-1.13,0.24,-0.29,11.07,97.9,-66
3900,90.359,0.52,1.28,-1.22,0.29,-0.24,11.76,98.1,-66
3901,90.442,0.47,1.18,-1.13,0.20,-0.29,11.76,98.1,-66
3902,90.526,0.42,1.16,-1.13,0.20,-0.20,11.76,98.1,-66
3903,90.610,0.42,1.17,-1.13,0.24,-0.20,11.07,98.1,-66
3904,90.693,0.31,1.19,-1.13,0.29,-0.24,11.07,98.1,-66
3905,90.777,0.27,1.17,-1.13,0.20,-0.24,11.07,98.1,-66
3906,90.860,0.25,1.18,-1.13,0.20,-0.29,11.76,98.2,-68
3907,90.944,0.24,1.19,-1.13,0.24,-0.29,11.76,98.2,-68
3908,91.027,0.22,1.18,-1.13,0.24,-0.24,11.76,98.2,-68
3909,91.111,0.22,1.17,-1.13,0.20,-0.24,11.07,98.2,-68
3910,91.195,0.27,1.18,-1.13,0.24,-0.24,11.07,98.2,-68
3911,91.278,0.39,1.18,-1.13,0.24,-0.24,11.07,98.2,-68
3912,91.378,0.44,1.27,-1.22,0.24,-0.24,11.74,98.3,-68
3913,91.478,0.34,1.19,-1.13,0.24,-0.29,11.72,98.3,-68
3914,91.579,0.38,1.22,-1.18,0.24,-0.20,11.70,98.3,-68
3915,91.679,0.38,1.22,-1.18,0.24,-0.20,11.01,98.3,-68
3916,91.779,0.35,1.19,-1.13,0.24,-0.29,11.01,98.3,-68
3917,91.879,0.38,1.18,-1.13,0.24,-0.24,11.01,98.3,-68
3918,91.963,0.50,1.22,-1.18,0.20,-0.24,11.72,98.4,-69
3919,92.046,0.47,1.17,-1.13,0.24,-0.20,11.74,98.4,-69
3920,92.130,0.41,1.24,-1.18,0.24,-0.29,11.76,98.4,-69
3921,92.213,0.41,1.18,-1.13,0.24,-0.24,11.07,98.4,-69
3922,92.297,0.36,1.12,-1.08,0.24,-0.20,11.07,98.4,-69
3923,92.381,0.42,1.19,-1.13,0.24,-0.29,11.07,98.4,-69
3924,92.464,0.48,1.21,-1.18,0.20,-0.20,11.76,98.5,-66
3925,92.548,0.45,1.21,-1.13,0.29,-0.34,11.76,98.5,-66
3926,92.631,0.38,1.23,-1.18,0.24,-0.24,11.76,98.5,-66
3927,92.715,0.38,1.19,-1.13,0.24,-0.29,11.07,98.5,-66
3928,92.798,0.34,1.24,-1.18,0.24,-0.29,11.07,98.5,-66
3929,92.882,0.35,1.19,-1.13,0.24,-0.29,11.07,98.5,-66
3936,93.065,0.43,1.23,-1.18,0.20,-0.29,11.63,93.1,-66
3937,93.249,0.41,1.19,-1.13,0.24,-0.29,11.50,93.1,-66
3938,93.432,0.38,1.23,-1.18,0.29,-0.20,11.37,93.1,-66
3939,93.615,0.38,1.23,-1.18,0.20,-0.29,10.58,93.1,-66
3940,93.799,0.34,1.18,-1.13,0.24,-0.24,10.47,93.1,-66
3941,93.982,0.47,1.19,-1.13,0.24,-0.29,10.36,93.1,-66
3942,94.065,0.49,1.19,-1.13,0.29,-0.24,11.00,93.5,-67
3943,94.149,0.54,1.16,-1.13,0.20,-0.20,11.00,93.5,-67
3944,94.233,0.46,1.17,-1.13,0.24,-0.20,11.00,93.5,-67
3945,94.316,0.46,1.22,-1.18,0.24,-0.20,10.37,93.5,-67
3946,94.400,0.37,1.24,-1.18,0.29,-0.24,10.39,93.5,-67
3947,94.483,0.40,1.25,-1.18,0.29,-0.29,10.41,93.5,-67
3948,94.567,0.42,1.25,-1.18,0.24,-0.34,11.08,93.9,-67
3949,94.650,0.36,1.18,-1.13,0.24,-0.24,11.10,93.9,-67
3950,94.734,0.42,1.19,-1.13,0.24,-0.29,11.12,93.9,-67
3951,94.818,0.42,1.19,-1.13,0.24,-0.29,10.47,93.9,-67
3952,94.901,0.37,1.22,-1.18,0.20,-0.24,10.47,93.9,-67
3953,94.985,0.41,1.18,-1.13,0.24,-0.24,10.47,93.9,-67
3954,95.068,0.53,1.19,-1.13,0.24,-0.29,11.12,94.3,-67
3955,95.152,0.46,1.23,-1.18,0.24,-0.24,11.12,94.3,-67
3956,95.235,0.39,1.16,-1.13,0.20,-0.20,11.12,94.3,-67
3957,95.319,0.39,1.23,-1.18,0.24,-0.24,10.47,94.3,-67
3958,95.402,0.37,1.18,-1.13,0.24,-0.24,10.47,94.3,-67
3959,95.486,0.33,1.23,-1.18,0.20,-0.29,10.47,94.3,-67
3960,95.586,0.38,1.23,-1.18,0.20,-0.29,11.10,94.6,-67
3961,95.686,0.42,1.23,-1.18,0.20,-0.29,11.08,94.6,-67
3962,95.787,0.39,1.24,-1.18,0.29,-0.24,11.06,94.6,-67
3963,95.887,0.39,1.22,-1.18,0.24,-0.20,10.39,94.6,-67
3964,95.987,0.39,1.23,-1.18,0.24,-0.24,10.37,94.6,-67
3965,96.087,0.36,1.23,-1.18,0.24,-0.24,10.36,94.6,-67
3966,96.171,0.33,1.23,-1.18,0.24,-0.24,11.00,94.9,-67
3967,96.254,0.31,1.23,-1.18,0.24,-0.24,11.00,94.9,-67
3968,96.338,0.39,1.25,-1.18,0.24,-0.34,11.00,94.9,-67
3969,96.421,0.39,1.24,-1.18,0.20,-0.34,10.37,94.9,-67
3970,96.505,0.33,1.18,-1.13,0.29,-0.20,10.39,94.9,-67
3971,96.588,0.38,1.23,-1.18,0.24,-0.24,10.41,94.9,-67
3972,96.672,0.45,1.19,-1.13,0.20,-0.34,11.08,95.2,-67
3973,96.756,0.40,1.24,-1.18,0.24,-0.29,11.10,95.2,-67
3974,96.839,0.42,1.16,-1.13,0.20,-0.20,11.12,95.2,-67
3975,96.923,0.42,1.25,-1.18,0.29,-0.29,10.47,95.2,-67
3976,97.006,0.37,1.22,-1.18,0.20,-0.24,10.47,95.2,-67
3977,97.090,0.40,1.25,-1.18,0.29,-0.29,10.47,95.2,-67
3978,97.173,0.47,1.23,-1.18,0.24,-0.24,11.12,95.5,-66
3979,97.257,0.52,1.19,-1.13,0.24,-0.29,11.12,95.5,-66
3980,97.341,0.50,1.23,-1.18,0.24,-0.24,11.12,95.5,-66
3981,97.424,0.50,1.19,-1.13,0.29,-0.24,10.47,95.5,-66
3982,97.508,0.42,1.18,-1.13,0.20,-0.29,10.47,95.5,-66
3983,97.591,0.40,1.23,-1.18,0.20,-0.29,10.47,95.5,-66
3984,97.675,0.51,1.23,-1.18,0.24,-0.24,11.12,95.8,-66
3985,97.758,0.51,1.28,-1.22,0.24,-0.29,11.12,95.8,-66
3986,97.842,0.49,1.21,-1.18,0.24,-0.15,11.12,95.8,-66
3987,97.925,0.49,1.23,-1.18,0.24,-0.24,10.47,95.8,-66
3988,98.009,0.49,1.24,-1.18,0.29,-0.24,10.47,95.8,-66
3989,98.093,0.41,1.16,-1.13,0.20,-0.20,10.47,95.8,-66
3996,98.276,0.38,1.28,-1.22,0.29,-0.24,11.00,90.7,-65
3997,98.459,0.37,1.23,-1.18,0.24,-0.24,10.89,90.7,-65
3998,98.642,0.32,1.13,-1.08,0.20,-0.29,10.77,90.7,-65
3999,98.826,0.32,1.26,-1.18,0.29,-0.34,10.05,90.7,-65
4000,99.009,0.28,1.23,-1.18,0.24,-0.24,9.96,90.7,-65
4001,99.192,0.26,1.17,-1.13,0.20,-0.24,9.88,90.7,-65
4002,99.276,0.29,1.20,-1.18,0.20,-0.15,10.51,91.3,-65
4003,99.360,0.28,1.23,-1.13,0.29,-0.39,10.53,91.3,-65
4004,99.443,0.30,1.18,-1.13,0.24,-0.24,10.55,91.3,-65
4005,99.527,0.30,1.19,-1.13,0.24,-0.29,9.93,91.3,-65
4006,99.610,0.26,1.18,-1.13,0.20,-0.29,9.93,91.3,-65
4007,99.694,0.25,1.19,-1.13,0.24,-0.29,9.93,91.3,-65
4008,99.777,0.31,1.24,-1.18,0.29,-0.24,10.55,91.8,-66
4009,99.861,0.32,1.22,-1.18,0.24,-0.20,10.55,91.8,-66
4010,99.945,0.34,1.23,-1.18,0.24,-0.24,10.55,91.8,-66
4011,100.028,0.34,1.24,-1.18,0.29,-0.24,9.93,91.8,-66
4012,100.112,0.38,1.22,-1.18,0.24,-0.20,9.93,91.8,-66
4013,100.195,0.36,1.23,-1.18,0.24,-0.24,9.93,91.8,-66
4014,100.295,0.39,1.23,-1.18,0.24,-0.24,10.53,92.3,-66
4015,100.396,0.34,1.19,-1.13,0.24,-0.29,10.51,92.3,-66
4016,100.496,0.35,1.19,-1.13,0.24,-0.29,10.49,92.3,-66
4017,100.596,0.35,1.24,-1.18,0.24,-0.29,9.86,92.3,-66
4018,100.696,0.31,1.24,-1.18,0.24,-0.29,9.84,92.3,-66
4019,100.796,0.32,1.19,-1.13,0.24,-0.29,9.83,92.3,-66
4020,100.880,0.42,1.24,-1.18,0.24,-0.29,10.44,92.7,-65
4021,100.964,0.42,1.23,-1.18,0.20,-0.29,10.44,92.7,-65
4022,101.047,0.43,1.23,-1.18,0.24,-0.24,10.44,92.7,-65
4023,101.131,0.43,1.25,-1.18,0.29,-0.29,9.84,92.7,-65
4024,101.214,0.34,1.18,-1.13,0.24,-0.24,9.86,92.7,-65
4025,101.298,0.38,1.27,-1.22,0.24,-0.24,9.88,92.7,-65
4026,101.381,0.45,1.23,-1.18,0.24,-0.24,10.51,93.1,-67
4027,101.465,0.40,1.20,-1.13,0.29,-0.29,10.53,93.1,-67
4028,101.548,0.39,1.24,-1.18,0.29,-0.24,10.55,93.1,-67
4029,101.632,0.39,1.24,-1.18,0.29,-0.24,9.93,93.1,-67
4030,101.716,0.42,1.23,-1.18,0.24,-0.24,9.93,93.1,-67
4031,101.799,0.44,1.23,-1.18,0.29,-0.20,9.93,93.1,-67
4032,101.883,0.50,1.19,-1.13,0.24,-0.29,10.55,93.5,-65
4033,101.966,0.35,1.23,-1.18,0.29,-0.20,10.55,93.5,-65
4034,102.050,0.35,1.19,-1.13,0.24,-0.29,10.55,93.5,-65
4035,102.133,0.35,1.24,-1.18,0.29,-0.24,9.93,93.5,-65
4036,102.217,0.35,1.25,-1.18,0.29,-0.29,9.93,93.5,-65
4037,102.300,0.41,1.19,-1.13,0.29,-0.24,9.93,93.5,-65
4038,102.401,0.50,1.19,-1.13,0.29,-0.24,10.53,93.9,-65
4039,102.501,0.44,1.19,-1.13,0.29,-0.24,10.51,93.9,-65
4040,102.601,0.39,1.24,-1.18,0.24,-0.29,10.49,93.9,-65
4041,102.701,0.39,1.20,-1.13,0.24,-0.34,9.96,93.9,-65
4042,102.801,0.40,1.27,-1.22,0.24,-0.24,10.05,93.9,-65
4043,102.902,0.47,1.23,-1.18,0.24,-0.24,10.14,93.9,-65
4044,102.985,0.56,1.19,-1.13,0.24,-0.29,10.89,94.3,-66
4045,103.069,0.45,1.28,-1.22,0.29,-0.24,11.00,94.3,-66
4046,103.152,0.44,1.20,-1.13,0.29,-0.29,11.12,94.3,-66
4047,103.236,0.44,1.18,-1.13,0.20,-0.29,10.47,94.3,-66
4048,103.319,0.37,1.23,-1.18,0.29,-0.20,10.47,94.3,-66
4049,103.403,0.42,1.22,-1.18,0.20,-0.24,10.47,94.3,-66
4050,103.486,0.52,1.23,-1.18,0.24,-0.24,11.12,94.6,-65
4051,103.570,0.46,1.12,-1.08,0.20,-0.24,11.12,94.6,-65
4052,103.654,0.43,1.18,-1.13,0.24,-0.24,11.12,94.6,-65
4053,103.737,0.43,1.24,-1.18,0.24,-0.29,10.47,94.6,-65
4054,103.821,0.41,1.19,-1.13,0.29,-0.24,10.47,94.6,-65
4055,103.904,0.43,1.24,-1.18,0.29,-0.24,10.47,94.6,-65
4056,103.988,0.47,1.19,-1.13,0.24,-0.29,11.12,94.9,-65
4057,104.071,0.43,1.26,-1.18,0.29,-0.34,11.12,94.9,-65
4058,104.155,0.36,1.23,-1.18,0.24,-0.24,11.12,94.9,-65
4059,104.238,0.36,1.23,-1.18,0.24,-0.24,10.47,94.9,-65
4060,104.322,0.27,1.24,-1.18,0.29,-0.24,10.47,94.9,-65
4061,104.406,0.33,1.19,-1.13,0.24,-0.29,10.47,94.9,-65
4062,104.506,0.42,1.18,-1.13,0.24,-0.24,11.10,95.2,-66
4063,104.606,0.43,1.18,-1.13,0.24,-0.24,11.08,95.2,-66
4064,104.706,0.50,1.19,-1.13,0.24,-0.29,11.06,95.2,-66
4065,104.806,0.50,1.18,-1.13,0.29,-0.20,10.41,95.2,-66
4066,104.906,0.44,1.22,-1.18,0.20,-0.24,10.41,95.2,-66
4067,105.007,0.42,1.19,-1.13,0.24,-0.29,10.41,95.2,-66
4068,105.090,0.51,1.18,-1.13,0.24,-0.24,11.08,95.5,-69
4069,105.174,0.46,1.22,-1.18,0.24,-0.20,11.10,95.5,-69
4070,105.257,0.36,1.20,-1.13,0.29,-0.29,11.12,95.5,-69
4071,105.341,0.36,1.18,-1.13,0.24,-0.24,10.47,95.5,-69
4072,105.425,0.39,1.24,-1.18,0.29,-0.24,10.47,95.5,-69
4073,105.508,0.44,1.17,-1.13,0.24,-0.20,10.47,95.5,-69
4074,105.592,0.42,1.23,-1.18,0.24,-0.24,11.12,95.8,-66
4075,105.675,0.47,1.19,-1.13,0.24,-0.29,11.12,95.8,-66
4076,105.759,0.47,1.19,-1.13,0.24,-0.29,11.12,95.8,-66
4077,105.842,0.47,1.23,-1.18,0.24,-0.24,10.47,95.8,-66
4078,105.926,0.34,1.23,-1.18,0.24,-0.24,10.47,95.8,-66
4079,106.009,0.38,1.22,-1.18,0.24,-0.20,10.47,95.8,-66
4080,106.093,0.44,1.21,-1.18,0.20,-0.20,11.12,96.0,-66
4081,106.177,0.42,1.24,-1.18,0.24,-0.29,11.12,96.0,-66
4082,106.260,0.39,1.21,-1.18,0.20,-0.20,11.12,96.0,-66
4083,106.344,0.39,1.20,-1.13,0.29,-0.29,10.47,96.0,-66
4084,106.427,0.36,1.12,-1.08,0.20,-0.24,10.47,96.0,-66
4085,106.511,0.40,1.18,-1.13,0.24,-0.24,10.47,96.0,-66
4086,106.611,0.49,1.25,-1.18,0.29,-0.29,11.10,96.3,-67
4087,106.711,0.37,1.19,-1.13,0.29,-0.24,11.08,96.3,-67
4088,106.811,0.34,1.20,-1.13,0.29,-0.29,11.06,96.3,-67
4089,106.912,0.34,1.24,-1.18,0.24,-0.29,10.39,96.3,-67
4090,107.012,0.35,1.19,-1.13,0.24,-0.29,10.37,96.3,-67
4091,107.112,0.33,1.18,-1.13,0.24,-0.24,10.36,96.3,-67
4092,107.195,0.44,1.19,-1.13,0.24,-0.29,11.00,96.5,-67
4093,107.279,0.34,1.12,-1.08,0.24,-0.20,11.00,96.5,-67
4094,107.363,0.38,1.14,-1.08,0.24,-0.29,11.00,96.5,-67
4095,107.446,0.38,1.23,-1.18,0.24,-0.24,10.47,96.5,-67
4096,107.530,0.37,1.23,-1.18,0.20,-0.29,10.58,96.5,-67
4097,107.613,0.40,1.16,-1.13,0.20,-0.20,10.70,96.5,-67
4098,107.697,0.48,1.24,-1.18,0.24,-0.29,11.50,96.7,-67
4099,107.780,0.42,1.23,-1.18,0.24,-0.24,11.63,96.7,-67
4100,107.864,0.39,1.18,-1.13,0.24,-0.24,11.76,96.7,-67
4101,107.947,0.39,1.23,-1.18,0.29,-0.20,11.07,96.7,-67
4102,108.031,0.36,1.18,-1.13,0.29,-0.20,11.07,96.7,-67
4103,108.115,0.41,1.18,-1.13,0.29,-0.20,11.07,96.7,-67
4104,108.198,0.42,1.24,-1.18,0.24,-0.29,11.76,96.9,-67
4105,108.282,0.33,1.23,-1.18,0.24,-0.24,11.76,96.9,-67
4106,108.365,0.44,1.19,-1.13,0.24,-0.29,11.76,96.9,-67
4107,108.449,0.44,1.23,-1.18,0.24,-0.24,11.07,96.9,-67
4108,108.532,0.41,1.19,-1.13,0.24,-0.29,11.07,96.9,-67
4109,108.616,0.44,1.20,-1.13,0.29,-0.29,11.07,96.9,-67
4110,108.716,0.48,1.24,-1.18,0.24,-0.29,11.74,97.1,-68
4111,108.816,0.46,1.21,-1.13,0.29,-0.34,11.72,97.1,-68
4112,108.916,0.48,1.17,-1.13,0.24,-0.20,11.70,97.1,-68
4113,109.017,0.48,1.24,-1.18,0.29,-0.24,11.01,97.1,-68
4114,109.117,0.50,1.19,-1.13,0.29,-0.24,11.01,97.1,-68
4115,109.217,0.50,1.23,-1.18,0.24,-0.24,11.01,97.1,-68
4116,109.301,0.59,1.23,-1.18,0.24,-0.24,11.72,97.2,-67
4117,109.384,0.55,1.20,-1.13,0.29,-0.29,11.74,97.2,-67
4118,109.468,0.58,1.23,-1.18,0.24,-0.24,11.76,97.2,-67
4119,109.551,0.58,1.23,-1.18,0.24,-0.24,11.07,97.2,-67
4120,109.635,0.49,1.23,-1.18,0.24,-0.24,11.07,97.2,-67
4121,109.718,0.52,1.29,-1.22,0.29,-0.29,11.07,97.2,-67
4122,109.802,0.53,1.24,-1.18,0.24,-0.29,11.76,97.4,-68
4123,109.885,0.51,1.18,-1.13,0.29,-0.20,11.76,97.4,-68
4124,109.969,0.50,1.22,-1.18,0.24,-0.20,11.76,97.4,-68
4125,110.052,0.50,1.23,-1.18,0.24,-0.24,11.07,97.4,-68
4126,110.136,0.50,1.25,-1.18,0.24,-0.34,11.07,97.4,-68
4127,110.220,0.55,1.23,-1.18,0.24,-0.24,11.07,97.4,-68
4128,110.303,0.63,1.27,-1.22,0.29,-0.20,11.76,97.5,-68
4129,110.386,0.54,1.24,-1.18,0.20,-0.34,11.76,97.5,-68
4130,110.470,0.47,1.19,-1.13,0.29,-0.24,11.76,97.5,-68
4131,110.553,0.47,1.14,-1.08,0.24,-0.29,11.07,97.5,-68
4132,110.637,0.42,1.24,-1.18,0.24,-0.29,11.07,97.5,-68
4133,110.720,0.38,1.24,-1.18,0.29,-0.24,11.07,97.5,-68
4134,110.820,0.45,1.22,-1.18,0.20,-0.24,11.74,97.7,-68
4135,110.920,0.44,1.25,-1.18,0.24,-0.34,11.72,97.7,-68
4136,111.021,0.41,1.14,-1.08,0.24,-0.29,11.70,97.7,-68
4137,111.121,0.41,1.18,-1.13,0.24,-0.24,11.01,97.7,-68
4138,111.221,0.42,1.24,-1.18,0.29,-0.24,11.01,97.7,-68
4139,111.321,0.45,1.23,-1.18,0.29,-0.20,11.01,97.7,-68
4140,111.405,0.59,1.17,-1.13,0.24,-0.20,11.72,97.8,-67
4141,111.488,0.48,1.18,-1.13,0.24,-0.24,11.74,97.8,-67
4142,111.572,0.50,1.17,-1.13,0.20,-0.24,11.76,97.8,-67
4143,111.655,0.50,1.23,-1.18,0.24,-0.24,11.07,97.8,-67
4144,111.739,0.53,1.27,-1.22,0.24,-0.24,11.07,97.8,-67
4145,111.822,0.49,1.13,-1.08,0.24,-0.24,11.07,97.8,-67
4146,111.906,0.47,1.19,-1.13,0.20,-0.34,11.76,97.9,-68
4147,111.990,0.44,1.27,-1.22,0.24,-0.24,11.76,97.9,-68
4148,112.073,0.45,1.29,-1.22,0.29,-0.29,11.76,97.9,-68
4149,112.157,0.45,1.24,-1.18,0.24,-0.29,11.07,97.9,-68
4150,112.240,0.39,1.25,-1.18,0.24,-0.34,11.07,97.9,-68
4151,112.324,0.35,1.19,-1.13,0.24,-0.29,11.07,97.9,-68
4152,112.407,0.45,1.25,-1.18,0.29,-0.29,11.76,98.1,-67
4153,112.491,0.47,1.13,-1.08,0.24,-0.24,11.76,98.1,-67
4154,112.574,0.48,1.25,-1.18,0.24,-0.34,11.76,98.1,-67
4155,112.658,0.48,1.18,-1.13,0.29,-0.20,11.07,98.1,-67
4156,112.742,0.48,1.18,-1.13,0.20,-0.29,11.07,98.1,-67
4157,112.825,0.43,1.25,-1.18,0.29,-0.29,11.07,98.1,-67
4158,112.925,0.50,1.24,-1.18,0.24,-0.29,11.74,98.2,-67
4159,113.026,0.46,1.20,-1.13,0.29,-0.29,11.72,98.2,-67
4160,113.126,0.46,1.16,-1.13,0.20,-0.20,11.70,98.2,-67
4161,113.226,0.46,1.17,-1.13,0.24,-0.20,11.01,98.2,-67
4162,113.326,0.44,1.26,-1.22,0.20,-0.24,11.01,98.2,-67
4163,113.426,0.51,1.23,-1.18,0.24,-0.24,11.01,98.2,-67
4164,113.510,0.53,1.19,-1.13,0.24,-0.29,11.72,98.3,-67
4165,113.593,0.60,1.23,-1.18,0.24,-0.24,11.74,98.3,-67
4166,113.677,0.54,1.20,-1.13,0.29,-0.29,11.76,98.3,-67
4167,113.760,0.54,1.23,-1.18,0.24,-0.24,11.07,98.3,-67
4168,113.844,0.53,1.19,-1.13,0.29,-0.24,11.07,98.3,-67
4169,113.928,0.49,1.23,-1.18,0.24,-0.24,11.07,98.3,-67
4170,114.011,0.57,1.27,-1.22,0.24,-0.24,11.76,98.4,-68
4171,114.095,0.61,1.19,-1.13,0.24,-0.29,11.76,98.4,-68
4172,114.178,0.47,1.26,-1.18,0.34,-0.29,11.76,98.4,-68
4173,114.262,0.47,1.23,-1.18,0.24,-0.24,11.07,98.4,-68
4174,114.345,0.50,1.20,-1.13,0.24,-0.34,11.07,98.4,-68
4175,114.429,0.52,1.19,-1.13,0.24,-0.29,11.07,98.4,-68
4176,114.512,0.58,1.22,-1.13,0.24,-0.39,11.76,98.5,-67
4177,114.596,0.57,1.25,-1.18,0.29,-0.29,11.76,98.5,-67
4178,114.679,0.52,1.20,-1.13,0.24,-0.34,11.76,98.5,-67
4179,114.763,0.52,1.24,-1.18,0.24,-0.29,11.07,98.5,-67
4180,114.846,0.42,1.19,-1.13,0.24,-0.29,11.07,98.5,-67
4181,114.929,0.40,1.18,-1.13,0.24,-0.24,11.07,98.5,-67
4182,115.030,0.40,1.24,-1.18,0.24,-0.29,11.74,98.6,-67
4183,115.130,0.37,1.24,-1.18,0.24,-0.29,11.72,98.6,-67
4184,115.230,0.38,1.23,-1.18,0.24,-0.24,11.70,98.6,-67
4185,115.330,0.38,1.18,-1.13,0.24,-0.24,11.01,98.6,-67
4186,115.430,0.34,1.22,-1.18,0.24,-0.20,11.01,98.6,-67
4187,115.530,0.38,1.17,-1.13,0.20,-0.24,11.01,98.6,-67
4188,115.614,0.49,1.26,-1.18,0.29,-0.34,11.72,98.7,-67
4189,115.698,0.48,1.25,-1.18,0.24,-0.34,11.74,98.7,-67
4190,115.781,0.47,1.24,-1.18,0.24,-0.29,11.77,98.7,-67
4191,115.865,0.47,1.19,-1.13,0.29,-0.24,11.07,98.7,-67
4192,115.948,0.54,1.24,-1.18,0.24,-0.29,11.07,98.7,-67
4193,116.032,0.47,1.23,-1.18,0.24,-0.24,11.07,98.7,-67
4194,116.115,0.54,1.23,-1.18,0.24,-0.24,11.77,98.7,-68
4195,116.199,0.46,1.28,-1.22,0.24,-0.29,11.77,98.7,-68
4196,116.283,0.49,1.24,-1.18,0.29,-0.24,11.77,98.7,-68
4197,116.366,0.49,1.18,-1.13,0.24,-0.24,11.07,98.7,-68
4198,116.450,0.39,1.25,-1.18,0.29,-0.29,11.07,98.7,-68
4199,116.533,0.42,1.16,-1.08,0.24,-0.34,11.07,98.7,-68
4200,116.617,0.54,1.19,-1.13,0.24,-0.29,11.77,98.8,-67
4201,116.700,0.52,1.28,-1.22,0.24,-0.29,11.77,98.8,-67
4202,116.784,0.49,1.19,-1.13,0.24,-0.29,11.77,98.8,-67
4203,116.867,0.49,1.19,-1.13,0.24,-0.29,11.07,98.8,-67
4204,116.951,0.48,1.24,-1.18,0.29,-0.24,11.07,98.8,-67
4205,117.035,0.48,1.20,-1.13,0.24,-0.34,11.07,98.8,-67
4206,117.118,0.55,1.18,-1.13,0.24,-0.24,11.77,98.9,-69
4207,117.202,0.53,1.25,-1.18,0.29,-0.29,11.77,98.9,-69
4208,117.286,0.53,1.13,-1.08,0.24,-0.24,11.77,98.9,-69
4209,117.369,0.53,1.19,-1.13,0.29,-0.24,11.09,98.9,-69
4210,117.453,0.47,1.19,-1.13,0.24,-0.29,11.12,98.9,-69
4211,117.536,0.50,1.19,-1.13,0.24,-0.29,11.14,98.9,-69
4212,117.637,0.60,1.23,-1.18,0.24,-0.24,11.83,98.9,-67
4213,117.737,0.61,1.18,-1.13,0.24,-0.24,11.83,98.9,-67
4214,117.837,0.57,1.22,-1.18,0.20,-0.24,11.83,98.9,-67
4215,117.937,0.57,1.24,-1.18,0.24,-0.29,11.12,98.9,-67
4216,118.037,0.45,1.17,-1.13,0.24,-0.20,11.09,98.9,-67
4217,118.137,0.46,1.16,-1.08,0.29,-0.29,11.07,98.9,-67
4218,118.221,0.47,1.22,-1.18,0.24,-0.20,11.76,99.0,-66
4219,118.305,0.46,1.17,-1.13,0.24,-0.20,11.76,99.0,-66
4220,118.388,0.48,1.20,-1.13,0.29,-0.29,11.76,99.0,-66
4221,118.472,0.48,1.26,-1.18,0.34,-0.29,11.07,99.0,-66
4222,118.555,0.35,1.18,-1.13,0.24,-0.24,11.07,99.0,-66
4223,118.639,0.36,1.18,-1.13,0.24,-0.24,11.07,99.0,-66
4224,118.722,0.38,1.26,-1.18,0.34,-0.29,11.77,99.1,-65
4225,118.806,0.37,1.12,-1.08,0.20,-0.24,11.77,99.1,-65
4226,118.889,0.37,1.18,-1.13,0.24,-0.24,11.77,99.1,-65
4227,118.972,0.37,1.19,-1.13,0.29,-0.24,11.07,99.1,-65
4228,119.056,0.36,1.28,-1.22,0.29,-0.24,11.07,99.1,-65
4229,119.139,0.42,1.18,-1.13,0.20,-0.29,11.07,99.1,-65
4230,119.223,0.54,1.19,-1.13,0.15,-0.34,11.77,99.1,-66
4231,119.306,0.49,1.17,-1.13,0.24,-0.20,11.77,99.1,-66
4232,119.390,0.47,1.23,-1.18,0.24,-0.24,11.76,99.1,-66
4233,119.473,0.47,1.17,-1.13,0.24,-0.20,11.09,99.1,-66
4234,119.557,0.45,1.19,-1.13,0.24,-0.29,11.12,99.1,-66
4235,119.641,0.46,1.21,-1.13,0.29,-0.34,11.14,99.1,-66
4236,119.741,0.55,1.23,-1.18,0.24,-0.24,11.83,99.2,-67
4237,119.841,0.56,1.19,-1.13,0.29,-0.24,11.83,99.2,-67
4238,119.941,0.59,1.23,-1.18,0.24,-0.24,11.83,99.2,-67
4239,120.041,0.59,1.28,-1.22,0.29,-0.24,11.12,99.2,-67
4240,120.141,0.50,1.23,-1.18,0.24,-0.24,11.09,99.2,-67
4241,120.242,0.51,1.20,-1.13,0.24,-0.34,11.07,99.2,-67
4242,120.325,0.59,1.23,-1.18,0.24,-0.24,11.76,99.2,-67
4243,120.409,0.51,1.20,-1.13,0.29,-0.29,11.76,99.2,-67
4244,120.492,0.55,1.24,-1.18,0.24,-0.29,11.76,99.2,-67
4245,120.576,0.55,1.23,-1.18,0.24,-0.24,11.07,99.2,-67
4246,120.659,0.46,1.23,-1.18,0.24,-0.24,11.07,99.2,-67
4247,120.743,0.46,1.18,-1.13,0.24,-0.24,11.07,99.2,-67
4248,120.827,0.49,1.18,-1.13,0.24,-0.24,11.76,99.3,-68
4249,120.910,0.39,1.18,-1.13,0.20,-0.29,11.76,99.3,-68
4250,120.994,0.45,1.23,-1.18,0.20,-0.29,11.76,99.3,-68
4251,121.077,0.45,1.16,-1.13,0.20,-0.20,11.07,99.3,-68
4252,121.161,0.39,1.24,-1.18,0.24,-0.29,11.07,99.3,-68
4253,121.244,0.38,1.26,-1.22,0.24,-0.20,11.07,99.3,-68
4254,121.328,0.46,1.22,-1.18,0.24,-0.20,11.76,99.3,-68
4255,121.411,0.44,1.18,-1.13,0.24,-0.24,11.76,99.3,-68
4256,121.495,0.44,1.26,-1.18,0.34,-0.29,11.76,99.3,-68
4257,121.579,0.44,1.26,-1.18,0.29,-0.34,11.09,99.3,-68
4258,121.662,0.36,1.23,-1.18,0.24,-0.24,11.12,99.3,-68
4259,121.746,0.38,1.23,-1.18,0.24,-0.24,11.14,99.3,-68
4260,121.846,0.49,4.05,-4.02,0.39,-0.34,11.83,99.3,-93
4261,121.946,0.38,6.58,-6.52,0.83,-0.34,11.83,99.3,-93
4262,122.046,0.22,7.19,-7.15,0.54,-0.49,11.83,99.3,-93
4263,122.146,0.22,8.85,-8.82,0.64,-0.44,11.12,99.3,-93
4264,122.247,0.14,7.51,-7.50,0.29,-0.34,11.09,99.3,-93
4265,122.347,0.22,7.49,-7.35,1.03,-0.98,11.07,99.3,-93
4266,122.430,0.51,2.76,-2.70,0.34,-0.49,11.76,99.4,-86
4267,122.514,2.03,2.77,-2.70,0.44,-0.44,11.76,99.4,-86
4268,122.598,3.25,2.80,-2.74,0.39,-0.39,11.76,99.4,-86
4269,122.681,3.25,2.71,-2.65,0.49,-0.29,11.07,99.4,-86
4270,122.765,4.35,2.85,-2.79,0.49,-0.29,11.07,99.4,-86
4271,122.848,5.33,2.80,-2.74,0.49,-0.29,11.07,99.4,-86
4272,122.932,6.24,2.69,-2.65,0.24,-0.39,11.76,99.4,-93
4273,123.015,9.07,2.60,-2.55,0.24,-0.44,11.76,99.4,-93
4274,123.099,11.34,2.69,-2.65,0.24,-0.44,11.76,99.4,-93
4275,123.182,11.34,2.66,-2.60,0.29,-0.49,11.07,99.4,-93
4276,123.266,13.27,2.65,-2.60,0.34,-0.39,11.07,99.4,-93
4277,123.350,14.80,2.66,-2.60,0.39,-0.39,11.07,99.4,-93
4278,123.433,16.36,2.31,-2.25,0.44,-0.24,11.76,99.5,-93
4279,123.517,20.40,2.34,-2.25,0.49,-0.39,11.76,99.5,-93
4280,123.600,23.61,2.20,-2.16,0.29,-0.34,11.76,99.5,-93
4281,123.684,23.61,2.23,-2.16,0.29,-0.49,11.09,99.5,-93
4282,123.767,26.18,2.22,-2.16,0.24,-0.49,11.11,99.5,-93
4283,123.851,28.43,2.19,-2.16,0.20,-0.34,11.14,99.5,-93
4284,123.951,30.30,0.62,0.34,0.15,-0.49,11.83,99.5,-95
4285,124.051,35.18,0.62,0.29,0.24,-0.49,11.83,99.5,-95
4286,124.151,38.99,0.49,0.29,0.20,-0.34,11.83,99.5,-95
4287,124.251,38.99,0.48,0.24,0.29,-0.29,11.11,99.5,-95
4288,124.351,42.23,0.41,0.29,0.15,0.24,11.09,99.5,-95
4289,124.451,44.73,0.42,0.29,0.29,-0.05,11.07,99.5,-95
4290,124.535,46.88,0.30,0.10,0.15,-0.24,11.76,99.5,-111
4291,124.618,51.28,0.21,0.15,0.00,-0.15,11.76,99.5,-111
4292,124.702,54.81,0.30,0.10,0.15,-0.24,11.76,99.5,-111
4293,124.786,54.81,0.39,0.15,0.10,-0.34,11.07,99.5,-111
4294,124.869,57.63,0.30,0.10,0.15,-0.24,11.07,99.5,-111
4295,124.953,59.92,0.32,0.10,0.10,-0.29,11.07,99.5,-111
4296,125.036,61.83,0.42,0.05,0.15,-0.39,11.76,99.5,-90
4297,125.120,65.34,0.27,0.05,0.10,-0.24,11.76,99.5,-90
4298,125.203,68.18,0.36,0.05,0.10,-0.34,11.76,99.5,-90
4299,125.287,68.18,0.18,0.00,0.10,-0.15,11.07,99.5,-90
4300,125.371,70.45,0.21,0.05,0.05,-0.20,11.07,99.5,-90
4301,125.454,72.23,0.29,0.00,0.15,-0.24,11.07,99.5,-90
4302,125.538,73.78,0.31,0.00,0.10,-0.29,11.76,99.6,-85
4303,125.621,76.39,0.24,0.00,0.15,-0.20,11.76,99.6,-85
4304,125.705,78.44,0.21,0.00,0.15,-0.15,11.76,99.6,-85
4305,125.789,78.44,0.28,0.00,0.20,-0.20,11.07,99.6,-85
4306,125.872,80.10,0.24,0.00,0.15,-0.20,11.07,99.6,-85
4307,125.956,81.41,0.29,0.00,0.15,-0.24,11.07,99.6,-85
4308,126.056,82.52,0.33,-0.05,0.15,-0.29,11.74,99.6,-81
4309,126.156,84.44,0.33,0.00,0.15,-0.29,11.72,99.6,-81
4310,126.256,85.89,0.27,-0.05,0.10,-0.24,11.70,99.6,-81
4311,126.356,85.89,0.29,-0.05,0.15,-0.24,11.01,99.6,-81
4312,126.457,86.98,0.38,-0.05,0.15,-0.34,11.01,99.6,-81
4313,126.557,87.90,0.31,-0.05,0.10,-0.29,11.01,99.6,-81
4314,126.640,88.68,0.40,-0.05,0.20,-0.34,11.72,99.6,-81
4315,126.724,89.68,0.32,-0.05,0.20,-0.24,11.74,99.6,-81
4316,126.808,90.57,0.36,-0.05,0.20,-0.29,11.76,99.6,-81
4317,126.891,90.57,0.40,-0.05,0.20,-0.34,11.07,99.6,-81
4318,126.975,91.18,0.32,-0.05,0.20,-0.24,11.07,99.6,-81
4319,127.058,91.58,0.33,-0.05,0.15,-0.29,11.07,99.6,-81
4320,127.142,91.95,0.40,-0.05,0.20,-0.34,11.76,99.6,-80
4321,127.226,92.23,0.36,-0.05,0.20,-0.29,11.76,99.6,-80
4322,127.309,92.46,0.38,-0.05,0.15,-0.34,11.76,99.6,-80
4323,127.393,92.46,0.33,-0.05,0.15,-0.29,11.07,99.6,-80
4324,127.476,92.60,0.33,-0.05,0.15,-0.29,11.07,99.6,-80
4325,127.560,92.67,0.38,-0.05,0.15,-0.34,11.07,99.6,-80
4326,127.643,92.76,0.42,0.00,0.15,-0.39,11.76,99.7,-80
4327,127.727,92.24,0.37,0.00,0.15,-0.34,11.76,99.7,-80
4328,127.811,91.82,0.44,0.00,0.20,-0.39,11.76,99.7,-80
4329,127.894,91.82,0.31,0.00,0.10,-0.29,11.07,99.7,-80
4330,127.978,91.52,0.33,0.00,0.15,-0.29,11.07,99.7,-80
4331,128.061,91.21,0.26,0.00,0.10,-0.24,11.07,99.7,-80
4332,128.162,90.99,0.33,0.00,0.15,-0.29,11.74,99.7,-76
4333,128.262,89.79,0.33,0.00,0.15,-0.29,11.72,99.7,-76
4334,128.362,88.83,0.36,-0.05,0.20,-0.29,11.70,99.7,-76
4335,128.462,88.83,0.33,-0.05,0.15,-0.29,11.01,99.7,-76
4336,128.562,88.01,0.42,0.00,0.15,-0.39,11.01,99.7,-76
4337,128.663,87.29,0.33,0.00,0.15,-0.29,11.01,99.7,-76
4338,128.746,86.69,0.73,0.00,-0.24,-0.69,11.72,99.7,-90
4339,128.830,85.65,0.78,0.05,-0.24,-0.74,11.74,99.7,-90
4340,128.913,84.74,1.02,0.00,-0.29,-0.98,11.76,99.7,-90
4341,128.997,84.74,1.11,0.00,-0.24,-1.08,11.07,99.7,-90
4342,129.081,84.02,1.87,-0.05,-0.15,-1.86,11.07,99.7,-90
4343,129.164,83.36,2.31,-0.05,-0.10,-2.30,11.07,99.7,-90
4344,129.248,83.79,1.99,0.24,0.98,-1.72,11.76,99.7,-76
4345,129.331,82.91,2.21,0.29,1.22,-1.81,11.76,99.7,-76
4346,129.415,81.95,2.82,0.29,1.52,-2.35,11.76,99.7,-76
4347,129.498,81.95,4.65,1.57,2.45,-3.63,11.07,99.7,-76
4348,129.582,81.38,2.09,0.00,-0.39,-2.06,11.07,99.7,-76
4349,129.666,80.72,2.19,-0.10,-0.98,-1.96,11.07,99.7,-76
4350,129.749,79.79,2.08,-1.81,0.29,-0.98,11.76,99.7,-79
4351,129.833,77.35,2.60,-1.86,-0.98,-1.52,11.76,99.7,-79
4352,129.916,75.44,3.36,-2.70,-0.15,-2.01,11.76,99.7,-79
4353,130.000,75.44,2.51,-1.47,0.83,-1.86,11.07,99.7,-79
4354,130.084,73.78,1.31,-1.08,0.64,-0.39,11.07,99.7,-79
4355,130.167,72.96,1.17,-0.93,0.29,-0.64,11.07,99.7,-79
4356,130.251,73.13,1.56,-0.34,0.83,-1.27,11.76,99.8,-73
4357,130.334,69.72,2.24,0.00,1.32,-1.81,11.76,99.8,-73
4358,130.418,67.13,1.33,-0.39,0.49,-1.18,11.76,99.8,-73
4359,130.501,67.13,1.51,-0.29,1.22,-0.83,11.09,99.8,-73
4360,130.585,65.31,1.31,-0.20,1.13,-0.64,11.11,99.8,-73
4361,130.669,63.65,1.03,-0.10,1.03,0.00,11.13,99.8,-73
4362,130.769,62.42,1.39,-0.34,-0.98,-0.93,11.83,99.8,-75
4363,130.869,59.39,1.38,-0.39,-1.13,-0.69,11.83,99.8,-75
4364,130.969,57.43,1.79,-0.44,-1.57,-0.74,11.83,99.8,-75
4365,131.070,57.43,1.73,-0.29,-1.52,0.78,11.11,99.8,-75
4366,131.170,56.42,1.64,-0.74,-1.32,0.64,11.09,99.8,-75
4367,131.270,56.19,1.75,-0.54,0.00,-1.67,11.07,99.8,-75
4368,131.353,56.52,1.62,-1.18,0.54,0.98,11.76,99.8,-76
4369,131.437,52.65,1.15,-0.78,-0.05,0.83,11.76,99.8,-76
4370,131.520,48.88,1.29,-0.69,-0.20,1.08,11.76,99.8,-76
4371,131.604,48.88,1.33,-0.39,-0.49,1.18,11.07,99.8,-76
4372,131.687,45.59,1.41,-0.15,-0.83,1.13,11.07,99.8,-76
4373,131.770,42.64,0.59,0.00,0.00,0.59,11.07,99.8,-76
4374,131.854,40.30,1.05,-0.88,0.29,-0.49,11.76,99.8,-71
4375,131.938,38.84,1.04,-0.88,0.39,-0.39,11.76,99.8,-71
4376,132.021,36.68,0.79,-0.78,0.05,-0.10,11.76,99.8,-71
4377,132.105,36.68,1.40,-0.78,0.93,0.69,11.07,99.8,-71
4378,132.188,34.55,1.03,-0.49,0.34,0.83,11.07,99.8,-71
4379,132.272,32.61,1.89,-0.98,1.62,0.10,11.07,99.8,-71
4380,132.355,30.93,0.64,-0.49,-0.15,-0.39,11.76,99.8,-74
4381,132.439,30.11,0.72,-0.59,-0.29,-0.29,11.76,99.8,-74
4382,132.523,29.49,0.91,-0.69,-0.54,-0.24,11.76,99.8,-74
4383,132.606,29.49,0.90,-0.64,-0.64,-0.05,11.09,99.8,-74
4384,132.690,28.66,0.69,-0.69,0.05,-0.05,11.11,99.8,-74
4385,132.773,27.53,0.56,-0.54,0.00,-0.15,11.13,99.8,-74
4386,132.873,26.15,2.49,-0.44,-0.83,-2.30,11.83,99.8,-79
4387,132.974,24.08,2.35,-0.39,0.24,-2.30,11.83,99.8,-79
4388,133.074,21.76,0.92,-0.20,0.15,-0.88,11.83,99.8,-79
4389,133.174,21.76,1.04,-0.24,0.78,-0.64,11.11,99.8,-79
4390,133.274,19.07,1.38,-0.64,-1.22,0.00,11.09,99.8,-79
4391,133.374,17.84,1.46,-0.54,1.03,-0.88,11.07,99.8,-79
4404,133.874,2.26,0.30,-0.05,-0.05,0.29,11.22,89.1,-126
4405,134.074,1.64,0.57,-0.10,0.15,0.54,11.08,89.1,-126
4406,134.274,1.12,0.92,-0.10,0.24,0.88,10.94,89.1,-126
4407,134.474,1.12,1.05,-0.15,0.34,0.98,10.17,89.1,-126
4408,134.674,0.68,0.79,-0.05,0.10,0.78,10.05,89.1,-126
4409,134.874,0.50,0.69,-0.10,0.00,0.69,9.93,89.1,-126
4410,134.974,0.39,0.58,-0.10,-0.20,0.54,10.53,89.8,-124
4411,135.074,0.26,0.55,-0.15,-0.20,0.49,10.51,89.8,-124
4412,135.175,0.21,0.61,-0.20,-0.20,0.54,10.49,89.8,-124
4413,135.275,0.21,0.64,-0.15,-0.20,0.59,9.86,89.8,-124
4414,135.375,0.21,0.64,-0.15,-0.20,0.59,9.84,89.8,-124
4415,135.475,0.16,0.61,-0.10,-0.15,0.59,9.83,89.8,-124
4416,135.559,0.10,0.58,-0.15,-0.15,0.54,10.44,90.4,-125
4417,135.642,0.07,0.67,-0.10,-0.20,0.64,10.44,90.4,-125
4418,135.726,0.00,0.61,-0.10,-0.15,0.59,10.44,90.4,-125
4419,135.810,0.00,0.55,-0.15,-0.20,0.49,9.84,90.4,-125
4420,135.893,-0.04,0.59,-0.15,-0.20,0.54,9.86,90.4,-125
4421,135.977,-0.05,0.64,-0.15,-0.20,0.59,9.88,90.4,-125
4422,136.060,-0.08,0.59,-0.15,-0.20,0.54,10.51,90.9,-124
4423,136.144,-0.07,0.53,-0.15,-0.15,0.49,10.53,90.9,-124
4424,136.227,-0.09,0.58,-0.10,-0.20,0.54,10.55,90.9,-124
4425,136.311,-0.09,0.67,-0.20,-0.24,0.59,9.93,90.9,-124
4426,136.395,-0.16,0.58,-0.15,-0.15,0.54,9.93,90.9,-124
4427,136.478,-0.13,0.64,-0.20,-0.15,0.59,9.93,90.9,-124
4428,136.562,-0.08,0.63,-0.10,-0.20,0.59,10.55,91.5,-126
4429,136.645,-0.04,0.63,-0.20,-0.10,0.59,10.55,91.5,-126
4430,136.729,-0.05,0.60,-0.24,-0.10,0.54,10.55,91.5,-126
4431,136.812,-0.05,0.64,-0.10,-0.24,0.59,9.93,91.5,-126
4432,136.896,-0.10,0.59,-0.15,-0.20,0.54,9.93,91.5,-126
4433,136.980,-0.09,0.59,-0.20,-0.15,0.54,9.93,91.5,-126
4440,137.163,-0.13,0.55,-0.20,-0.15,0.49,10.44,86.9,-129
4441,137.346,-0.13,0.58,-0.20,-0.10,0.54,10.33,86.9,-129
4442,137.530,-0.07,0.57,-0.10,-0.15,0.54,10.23,86.9,-129
4443,137.713,-0.07,0.67,-0.20,-0.24,0.59,9.53,86.9,-129
4444,137.896,-0.18,0.62,-0.15,-0.15,0.59,9.44,86.9,-129
4445,138.080,-0.18,0.63,-0.10,-0.20,0.59,9.35,86.9,-129
4452,138.247,-0.15,0.49,-0.10,-0.20,0.44,9.85,82.9,-126
4453,138.413,-0.12,0.62,-0.15,-0.15,0.59,9.77,82.9,-126
4454,138.580,-0.09,0.68,-0.15,-0.20,0.64,9.70,82.9,-126
4455,138.747,-0.09,0.65,-0.24,-0.15,0.59,9.07,82.9,-126
4456,138.914,-0.18,0.58,-0.15,-0.15,0.54,9.01,82.9,-126
4457,139.080,-0.11,0.60,-0.24,-0.10,0.54,8.96,82.9,-126
4458,139.180,-0.05,0.61,-0.10,-0.15,0.59,9.52,83.9,-125
4459,139.281,-0.11,0.64,-0.15,-0.20,0.59,9.52,83.9,-125
4460,139.381,-0.13,0.61,-0.15,-0.24,0.54,9.52,83.9,-125
4461,139.481,-0.13,0.54,-0.10,-0.20,0.49,8.94,83.9,-125
4462,139.581,-0.23,0.52,-0.10,-0.15,0.49,8.93,83.9,-125
4463,139.681,-0.19,0.60,-0.10,-0.24,0.54,8.92,83.9,-125
4464,139.765,-0.17,0.58,-0.10,-0.20,0.54,9.47,84.9,-125
4465,139.849,-0.18,0.74,-0.20,-0.20,0.69,9.47,84.9,-125
4466,139.932,-0.12,0.59,-0.15,-0.20,0.54,9.47,84.9,-125
4467,140.016,-0.12,0.57,-0.10,-0.15,0.54,8.92,84.9,-125
4468,140.099,-0.16,0.59,-0.15,-0.20,0.54,8.92,84.9,-125
4469,140.183,-0.17,0.68,-0.20,-0.15,0.64,8.92,84.9,-125
4470,140.267,-0.02,0.64,-0.15,-0.20,0.59,9.47,85.7,-123
4471,140.350,-0.06,0.65,-0.20,-0.20,0.59,9.47,85.7,-123
4472,140.434,-0.06,0.55,-0.15,-0.20,0.49,9.47,85.7,-123
4473,140.517,-0.06,0.59,-0.20,-0.15,0.54,8.92,85.7,-123
4474,140.601,-0.14,0.57,-0.15,-0.24,0.49,8.92,85.7,-123
4475,140.684,-0.15,0.64,-0.15,-0.20,0.59,8.92,85.7,-123
4482,140.868,-0.09,0.63,-0.10,-0.20,0.59,9.39,81.8,-126
4483,141.051,-0.11,0.67,-0.24,-0.20,0.59,9.30,81.8,-126
4484,141.235,-0.06,0.61,-0.15,-0.24,0.54,9.22,81.8,-126
4485,141.418,-0.06,0.59,-0.15,-0.20,0.54,8.60,81.8,-126
4486,141.601,-0.15,0.58,-0.10,-0.20,0.54,8.52,81.8,-126
4487,141.785,-0.17,0.67,-0.10,-0.20,0.64,8.45,81.8,-126
4488,141.868,-0.20,0.67,-0.10,-0.20,0.64,8.97,82.9,-128
4489,141.952,-0.18,0.58,-0.15,-0.15,0.54,8.97,82.9,-128
4490,142.035,-0.20,0.64,-0.15,-0.20,0.59,8.97,82.9,-128
4491,142.119,-0.20,0.59,-0.15,-0.20,0.54,8.46,82.9,-128
4492,142.203,-0.24,0.58,-0.15,-0.15,0.54,8.47,82.9,-128
4493,142.286,-0.23,0.64,-0.20,-0.15,0.59,8.48,82.9,-128
4494,142.370,-0.25,0.62,-0.24,-0.20,0.54,9.03,83.9,-125
4495,142.453,-0.30,0.63,-0.10,-0.20,0.59,9.04,83.9,-125
4496,142.537,-0.20,0.64,-0.20,-0.15,0.59,9.05,83.9,-125
4497,142.621,-0.20,0.61,-0.15,-0.24,0.54,8.52,83.9,-125
4498,142.704,-0.24,0.58,-0.20,-0.10,0.54,8.52,83.9,-125
4499,142.788,-0.16,0.61,-0.10,-0.15,0.59,8.52,83.9,-125
4500,142.871,-0.04,0.59,-0.20,-0.15,0.54,9.05,84.9,-127
4501,142.955,-0.10,0.64,-0.15,-0.20,0.59,9.05,84.9,-127
4502,143.038,-0.14,0.59,-0.15,-0.20,0.54,9.05,84.9,-127
4503,143.122,-0.14,0.59,-0.20,-0.15,0.54,8.52,84.9,-127
4504,143.206,-0.18,0.56,-0.20,-0.20,0.49,8.52,84.9,-127
4505,143.289,-0.25,0.59,-0.15,-0.20,0.54,8.52,84.9,-127
4506,143.373,-0.18,0.59,-0.15,-0.20,0.54,9.05,85.7,-125
4507,143.457,-0.25,0.67,-0.20,-0.10,0.64,9.05,85.7,-125
4508,143.540,-0.30,0.65,-0.15,-0.24,0.59,9.05,85.7,-125
4509,143.624,-0.30,0.63,-0.10,-0.20,0.59,8.52,85.7,-125
4510,143.708,-0.37,0.64,-0.10,-0.24,0.59,8.52,85.7,-125
4511,143.791,-0.28,0.74,-0.10,-0.24,0.69,8.52,85.7,-125
4542,145.987,-0.15,0.61,-0.20,-0.20,0.54,7.62,65.6,-127
4543,146.187,-0.16,0.65,-0.20,-0.20,0.59,7.56,65.6,-127
4544,146.387,-0.15,0.59,-0.15,-0.20,0.54,7.49,65.6,-127
4545,146.587,-0.15,0.59,-0.15,-0.20,0.54,7.00,65.6,-127
4546,146.787,-0.18,0.52,-0.10,-0.15,0.49,6.95,65.6,-127
4547,146.987,-0.23,0.55,-0.15,-0.20,0.49,6.90,65.6,-127
4548,147.071,-0.23,0.62,-0.15,-0.15,0.59,7.34,67.6,-126
4549,147.154,-0.23,0.57,-0.15,-0.10,0.54,7.35,67.6,-126
4550,147.238,-0.29,0.64,-0.10,-0.24,0.59,7.36,67.6,-126
4551,147.322,-0.29,0.63,-0.10,-0.20,0.59,7.14,67.6,-126
4552,147.405,-0.30,0.64,-0.15,-0.20,0.59,7.20,67.6,-126
4553,147.489,-0.26,0.63,-0.10,-0.20,0.59,7.26,67.6,-126
4620,152.778,-0.05,1.00,0.98,0.20,0.00,5.57,38.6,-114
4621,152.978,0.47,0.99,0.98,0.10,-0.05,5.57,38.6,-114
4622,153.178,0.96,0.88,0.83,0.24,-0.15,5.57,38.6,-114
4623,153.378,0.96,0.77,0.74,0.15,-0.20,5.22,38.6,-114
4624,153.578,1.25,1.06,1.03,0.20,-0.15,5.19,38.6,-114
4625,153.778,1.15,1.10,1.08,0.10,-0.20,5.16,38.6,-114
4626,153.878,1.04,0.84,0.74,0.29,-0.29,5.48,42.2,-113
4627,153.979,0.88,0.59,0.54,0.20,-0.15,5.48,42.2,-113
4628,154.079,0.77,0.64,0.49,0.29,-0.29,5.48,42.2,-113
4629,154.179,0.77,0.67,0.64,0.10,-0.20,5.16,42.2,-113
4630,154.279,0.76,0.82,0.74,0.20,-0.29,5.15,42.2,-113
4631,154.379,0.72,0.81,0.74,0.15,-0.29,5.15,42.2,-113
4632,154.463,0.73,0.92,0.69,-0.15,-0.59,5.47,45.6,-113
4633,154.547,0.69,0.94,0.69,-0.24,-0.59,5.47,45.6,-113
4634,154.630,0.72,0.83,0.59,-0.24,-0.54,5.47,45.6,-113
4635,154.714,0.72,0.84,0.64,-0.24,-0.49,5.15,45.6,-113
4636,154.797,0.64,0.98,0.78,-0.39,-0.44,5.15,45.6,-113
4637,154.881,0.64,0.94,0.78,-0.34,-0.39,5.15,45.6,-113
4638,154.965,0.75,0.86,0.78,0.00,-0.34,5.47,48.8,-116
4639,155.048,0.69,0.82,0.78,0.05,-0.24,5.47,48.8,-116
4640,155.132,0.70,0.82,0.78,0.00,-0.24,5.47,48.8,-116
4641,155.215,0.70,0.86,0.78,0.05,-0.34,5.15,48.8,-116
4642,155.299,0.66,0.86,0.74,-0.05,-0.44,5.15,48.8,-116
4643,155.382,0.69,1.00,0.83,-0.10,-0.54,5.15,48.8,-116
4644,155.466,0.71,0.80,0.78,0.00,-0.15,5.47,51.8,-116
4645,155.549,0.69,0.86,0.83,-0.05,-0.20,5.47,51.8,-116
4646,155.633,0.63,0.76,0.74,0.00,-0.20,5.47,51.8,-116
4647,155.717,0.63,0.78,0.74,0.05,-0.24,5.17,51.8,-116
4648,155.800,0.58,0.73,0.69,0.00,-0.24,5.20,51.8,-116
4649,155.884,0.58,0.78,0.74,0.05,-0.24,5.23,51.8,-116
4650,155.984,0.62,0.81,0.74,-0.05,-0.34,5.58,54.6,-112
4651,156.084,0.56,0.50,0.44,0.00,-0.24,5.61,54.6,-112
4652,156.184,0.64,0.93,0.88,-0.15,-0.24,5.63,54.6,-112
4653,156.284,0.64,1.23,1.22,-0.05,-0.05,5.32,54.6,-112
4654,156.385,0.63,1.18,1.18,0.00,0.00,5.34,54.6,-112
4655,156.485,0.58,1.27,1.27,0.00,0.00,5.36,54.6,-112
4656,156.568,0.75,1.10,1.03,0.00,-0.39,5.72,57.3,-106
4657,156.652,1.55,1.21,1.08,0.05,-0.54,5.75,57.3,-106
4658,156.736,2.16,1.36,1.22,-0.05,-0.59,5.78,57.3,-106
4659,156.819,2.16,1.19,1.03,-0.15,-0.59,5.44,57.3,-106
4660,156.903,2.47,1.03,0.83,-0.34,-0.49,5.45,57.3,-106
4661,156.986,2.35,0.92,0.74,-0.44,-0.34,5.45,57.3,-106
4662,157.070,2.15,0.80,0.59,-0.24,-0.49,5.80,59.8,-101
4663,157.153,2.04,0.58,0.44,-0.15,-0.34,5.80,59.8,-101
4664,157.236,2.24,1.00,0.64,-0.59,-0.49,5.81,59.8,-101
4665,157.320,2.24,0.77,0.69,-0.20,-0.29,5.47,59.8,-101
4666,157.403,2.60,0.74,0.49,-0.34,-0.44,5.47,59.8,-101
4667,157.487,2.66,0.72,0.49,-0.20,-0.49,5.47,59.8,-101
4668,157.570,2.74,1.51,1.13,-0.49,-0.88,5.81,62.1,-102
4669,157.654,2.31,1.37,1.08,-0.49,-0.69,5.81,62.1,-102
4670,157.737,2.06,1.17,1.08,-0.10,-0.44,5.81,62.1,-102
4671,157.821,2.06,1.15,1.13,-0.05,-0.24,5.47,62.1,-102
4672,157.904,1.89,1.44,1.42,-0.20,-0.15,5.47,62.1,-102
4673,157.988,1.78,1.43,1.42,-0.15,0.05,5.47,62.1,-102
4674,158.088,1.65,1.06,0.69,0.20,-0.78,5.81,64.3,-103
4675,158.188,1.65,0.83,0.64,0.20,-0.49,5.80,64.3,-103
4676,158.289,1.58,0.74,0.64,0.15,-0.34,5.79,64.3,-103
4677,158.389,1.58,1.60,0.98,1.22,-0.29,5.48,64.3,-103
4678,158.489,1.65,2.23,1.08,0.39,-1.91,5.51,64.3,-103
4679,158.589,1.68,2.03,1.32,0.69,-1.37,5.53,64.3,-103
4680,158.673,1.60,0.93,0.83,0.39,0.10,5.91,66.4,-100
4681,158.756,1.61,0.95,0.83,0.44,0.10,5.95,66.4,-100
4682,158.840,1.60,1.04,0.88,0.54,0.15,5.98,66.4,-100
4683,158.923,1.60,1.10,0.93,0.59,0.05,5.63,66.4,-100
4684,159.007,1.50,1.39,1.18,0.74,0.10,5.63,66.4,-100
4685,159.091,1.42,1.60,0.69,1.18,0.83,5.63,66.4,-100
4686,159.174,1.44,1.23,1.22,-0.05,0.05,5.98,68.4,-102
4687,159.258,1.45,1.37,1.37,-0.05,0.00,5.98,68.4,-102
4688,159.341,1.43,1.45,1.42,-0.15,0.24,5.98,68.4,-102
4689,159.425,1.43,1.33,1.32,0.00,0.10,5.63,68.4,-102
4690,159.508,1.35,1.23,1.22,0.05,0.15,5.63,68.4,-102
4691,159.592,1.33,1.36,1.32,-0.15,0.29,5.63,68.4,-102
4692,159.676,1.32,1.34,1.32,0.20,0.10,5.98,70.2,-103
4693,159.759,1.34,1.34,1.32,0.20,0.10,5.98,70.2,-103
4694,159.843,1.35,1.43,1.42,0.10,0.15,5.98,70.2,-103
4695,159.926,1.35,1.38,1.37,0.15,0.10,5.63,70.2,-103
4696,160.010,1.38,1.33,1.32,0.10,0.15,5.63,70.2,-103
4697,160.093,1.37,2.07,1.27,-0.59,1.52,5.63,70.2,-103
4698,160.194,1.37,1.23,1.18,0.20,0.29,5.97,72.0,-103
4699,160.294,1.25,1.28,1.22,0.29,0.24,5.97,72.0,-103
4700,160.394,1.17,1.31,1.27,0.20,0.24,5.96,72.0,-103
4701,160.494,1.17,1.35,1.32,0.20,0.15,5.61,72.0,-103
4702,160.594,1.16,1.43,1.42,0.15,0.10,5.60,72.0,-103
4703,160.695,1.19,1.49,1.47,0.15,0.15,5.60,72.0,-103
4704,160.778,1.28,1.52,1.22,-0.15,0.88,5.95,73.6,-103
4705,160.862,1.20,1.30,1.27,0.10,0.24,5.95,73.6,-103
4706,160.945,1.12,1.33,1.32,0.05,0.10,5.95,73.6,-103
4707,161.029,1.12,1.33,1.32,0.05,0.10,6.38,73.6,-103
4708,161.112,1.12,1.30,1.27,0.15,0.20,6.43,73.6,-103
4709,161.196,1.07,1.42,1.42,0.00,0.05,6.48,73.6,-103
4710,161.280,1.05,0.84,0.78,0.05,-0.29,6.94,75.2,-101
4711,161.363,1.03,0.94,0.83,0.00,-0.44,7.00,75.2,-101
4712,161.447,1.22,1.04,0.93,-0.15,-0.44,7.05,75.2,-101
4713,161.530,1.22,0.99,0.93,-0.05,-0.34,6.64,75.2,-101
4714,161.614,1.41,0.97,0.88,-0.05,-0.39,6.64,75.2,-101
4715,161.697,1.74,1.00,0.93,-0.10,-0.34,6.64,75.2,-101
4716,161.781,2.13,0.87,0.83,0.15,0.20,7.05,76.6,-98
4717,161.864,1.99,0.89,0.88,0.15,0.00,7.05,76.6,-98
4718,161.948,1.91,0.93,0.93,-0.05,0.00,7.05,76.6,-98
4719,162.032,1.91,0.89,0.88,-0.15,0.00,10.37,76.6,-98
4720,162.115,1.81,0.95,0.93,-0.15,-0.15,10.51,76.6,-98
4721,162.199,1.75,0.79,0.78,0.00,0.10,10.64,76.6,-98
4722,162.282,1.77,1.44,1.37,0.44,0.05,11.46,78.0,-98
4723,162.366,1.72,1.64,1.62,0.24,0.05,11.61,78.0,-98
4724,162.449,1.69,1.30,1.27,0.24,0.05,11.76,78.0,-98
4725,162.533,1.69,1.18,1.18,0.10,-0.10,11.09,78.0,-98
4726,162.617,1.63,1.08,1.08,0.00,-0.10,11.11,78.0,-98
4727,162.700,1.56,0.99,0.98,-0.05,-0.10,11.14,78.0,-98
4728,162.800,1.52,1.19,1.13,-0.20,-0.34,11.83,79.3,-105
4729,162.900,1.57,1.20,1.08,-0.34,-0.39,11.83,79.3,-105
4730,163.001,1.58,1.26,1.13,-0.44,-0.34,11.83,79.3,-105
4731,163.101,1.58,1.32,1.18,-0.49,-0.34,11.11,79.3,-105
4732,163.201,1.58,1.43,1.27,-0.59,-0.29,11.09,79.3,-105
4733,163.301,1.58,1.58,1.37,-0.74,-0.24,11.07,79.3,-105
4734,163.385,1.65,1.03,0.98,-0.10,-0.29,11.76,80.5,-100
4735,163.468,1.51,1.12,1.08,0.00,-0.29,11.76,80.5,-100
4736,163.552,1.50,1.27,1.27,0.05,0.00,11.76,80.5,-100
4737,163.635,1.50,1.13,1.13,0.00,0.00,11.07,80.5,-100
4738,163.719,1.47,1.39,1.37,0.20,-0.05,11.07,80.5,-100
4739,163.803,1.55,1.29,1.27,0.20,0.00,11.07,80.5,-100
4740,163.886,1.65,1.06,1.03,0.15,0.20,11.76,81.6,-97
4741,163.970,2.21,1.33,1.32,0.10,0.05,11.76,81.6,-97
4742,164.053,2.66,1.38,1.37,0.10,0.00,11.76,81.6,-97
4743,164.137,2.66,1.29,1.27,0.20,0.05,11.07,81.6,-97
4744,164.220,3.04,1.19,1.18,0.15,0.10,11.07,81.6,-97
4745,164.304,3.39,1.23,1.22,0.05,0.00,11.07,81.6,-97
4746,164.387,3.59,1.29,1.22,0.39,0.05,11.76,82.7,-101
4747,164.471,2.88,1.30,1.27,0.15,-0.20,11.76,82.7,-101
4748,164.555,2.31,0.98,0.93,-0.10,-0.29,11.76,82.7,-101
4749,164.638,2.31,1.03,0.93,-0.10,-0.44,11.09,82.7,-101
4750,164.722,1.88,1.37,1.32,0.15,-0.34,11.11,82.7,-101
4751,164.805,1.60,1.37,1.27,0.49,-0.05,11.14,82.7,-101
4752,164.905,1.36,1.05,0.59,0.24,-0.83,11.83,83.7,-104
4753,165.006,1.22,1.02,0.64,0.10,-0.78,11.83,83.7,-104
4754,165.106,1.11,0.76,0.59,0.20,-0.44,11.83,83.7,-104
4755,165.206,1.11,0.80,0.69,0.39,-0.15,11.11,83.7,-104
4756,165.306,1.03,0.94,0.78,0.49,-0.15,11.09,83.7,-104
4757,165.406,0.97,1.11,1.03,0.39,-0.10,11.07,83.7,-104
4758,165.490,1.04,0.87,0.83,0.05,-0.24,11.76,84.7,-106
4759,165.574,1.02,0.82,0.74,0.10,-0.34,11.76,84.7,-106
4760,165.657,1.04,0.90,0.78,0.10,-0.44,11.76,84.7,-106
4761,165.741,1.04,1.10,0.98,0.00,-0.49,11.07,84.7,-106
4762,165.824,1.02,0.93,0.88,-0.05,-0.29,11.07,84.7,-106
4763,165.908,1.01,1.04,0.93,-0.15,-0.44,11.07,84.7,-106
4764,165.991,1.16,0.99,0.74,-0.59,0.29,11.76,85.6,-116
4765,166.075,1.02,1.43,0.88,-1.13,-0.05,11.76,85.6,-116
4766,166.159,0.96,2.32,2.11,0.59,-0.78,11.76,85.6,-116
4767,166.242,0.96,2.25,1.86,-0.74,-1.03,11.07,85.6,-116
4768,166.326,0.96,1.13,1.13,-0.10,-0.05,11.07,85.6,-116
4769,166.409,1.02,1.08,1.08,-0.05,0.00,11.07,85.6,-116
4770,166.493,1.07,1.47,1.47,0.05,0.05,11.76,86.4,-108
4771,166.576,0.99,1.57,1.27,0.83,-0.39,11.76,86.4,-108
4772,166.660,1.01,1.18,0.83,0.83,0.00,11.76,86.4,-108
4773,166.743,1.01,0.89,0.59,0.20,-0.64,11.09,86.4,-108
4774,166.827,1.06,0.77,0.54,-0.10,-0.54,11.11,86.4,-108
4775,166.911,1.03,0.66,0.49,0.05,-0.44,11.13,86.4,-108
4776,167.011,1.03,0.98,0.83,0.15,-0.49,11.83,87.2,-106
4777,167.111,0.95,0.97,0.74,0.24,-0.59,11.83,87.2,-106
4778,167.211,0.92,1.91,1.76,0.69,-0.24,11.83,87.2,-106
4779,167.311,0.92,0.63,0.59,0.20,-0.10,11.11,87.2,-106
4780,167.411,0.87,0.60,0.59,0.10,0.00,11.09,87.2,-106
4781,167.512,0.90,0.73,0.64,0.34,-0.10,11.07,87.2,-106
4782,167.595,0.91,0.84,0.78,0.29,0.05,11.76,88.0,-106
4783,167.679,0.94,0.68,0.59,0.34,-0.05,11.76,88.0,-106
4784,167.762,1.01,0.64,0.54,0.34,-0.05,11.76,88.0,-106
4785,167.846,1.01,0.66,0.54,0.34,-0.15,11.07,88.0,-106
4786,167.929,1.00,0.83,0.64,0.29,-0.44,11.07,88.0,-106
4787,168.013,1.10,1.24,0.98,0.20,-0.74,11.07,88.0,-106
4788,168.097,1.64,1.00,0.98,0.20,0.00,11.76,88.7,-109
4789,168.180,1.36,0.92,0.88,0.20,0.15,11.76,88.7,-109
4790,168.264,1.27,0.71,0.69,0.15,-0.10,11.76,88.7,-109
4791,168.347,1.27,1.05,0.88,0.54,-0.20,11.07,88.7,-109
4792,168.431,1.10,0.98,0.93,0.29,-0.05,11.07,88.7,-109
4793,168.514,1.02,0.92,0.83,0.39,-0.05,11.07,88.7,-109
4794,168.598,0.97,0.71,0.69,-0.20,0.00,11.76,89.3,-109
4795,168.681,0.96,0.64,0.64,-0.10,0.00,11.76,89.3,-109
4796,168.765,1.34,0.56,0.54,0.15,-0.05,11.76,89.3,-109
4797,168.849,1.34,0.65,0.54,0.10,-0.34,11.09,89.3,-109
4798,168.932,1.86,0.65,0.59,0.20,-0.20,11.11,89.3,-109
4799,169.016,2.34,0.83,0.74,0.29,-0.24,11.13,89.3,-109
4800,169.116,2.73,0.99,0.98,0.10,0.10,11.83,89.9,-106
4801,169.216,2.17,1.09,1.08,0.10,0.10,11.83,89.9,-106
4802,169.316,1.84,1.10,1.08,0.15,0.15,11.83,89.9,-106
4803,169.416,1.84,1.11,1.08,0.20,0.15,11.11,89.9,-106
4804,169.517,1.54,1.20,1.18,0.24,0.10,11.09,89.9,-106
4805,169.617,1.43,1.20,1.18,0.24,0.05,11.07,89.9,-106
4806,169.700,1.34,0.84,0.78,0.20,-0.24,11.76,90.5,-113
4807,169.784,1.70,0.83,0.78,0.20,-0.20,11.76,90.5,-113
4808,169.868,1.99,0.71,0.64,0.24,-0.20,11.76,90.5,-113
4809,169.951,1.99,0.62,0.59,0.15,-0.15,11.07,90.5,-113
4810,170.035,2.15,0.66,0.64,0.15,-0.10,11.07,90.5,-113
4811,170.118,2.35,0.85,0.83,0.10,-0.15,11.07,90.5,-113
4812,170.202,2.33,1.14,1.13,0.15,0.00,11.76,91.1,-113
4813,170.285,2.03,1.27,1.22,0.34,0.05,11.76,91.1,-113
4814,170.369,1.79,1.32,1.27,0.34,0.05,11.76,91.1,-113
4815,170.452,1.79,1.33,1.32,-0.10,0.00,11.07,91.1,-113
4816,170.536,1.57,1.13,1.13,-0.10,0.05,11.07,91.1,-113
4817,170.620,1.40,1.09,1.08,-0.10,0.15,11.07,91.1,-113
4818,170.703,1.41,1.23,1.13,0.10,-0.49,11.76,91.6,-108
4819,170.787,1.90,1.14,1.03,0.10,-0.49,11.76,91.6,-108
4820,170.870,2.34,0.97,0.83,0.10,-0.49,11.76,91.6,-108
4821,170.954,2.34,0.83,0.69,0.15,-0.44,11.07,91.6,-108
4822,171.037,2.54,0.89,0.74,0.10,-0.49,11.07,91.6,-108
4823,171.121,2.70,0.99,0.83,0.05,-0.54,11.07,91.6,-108
4842,172.219,0.79,1.19,1.18,0.15,0.05,10.53,77.8,-127
4843,172.419,0.76,1.24,1.22,0.10,0.15,10.41,77.8,-127
4844,172.619,0.78,1.05,1.03,0.15,0.15,10.28,77.8,-127
4845,172.819,0.78,0.95,0.93,0.15,0.15,9.58,77.8,-127
4846,173.019,0.80,1.11,1.08,0.15,0.24,9.49,77.8,-127
4847,173.219,0.80,1.16,1.13,0.20,0.20,9.40,77.8,-127
4848,173.319,0.91,0.89,0.83,0.29,-0.10,9.98,79.1,-116
4849,173.419,0.76,0.77,0.69,0.34,-0.05,9.98,79.1,-116
4850,173.519,0.69,0.71,0.64,0.29,-0.10,9.98,79.1,-116
4851,173.619,0.69,0.70,0.64,0.29,-0.05,9.38,79.1,-116
4852,173.720,0.62,0.71,0.64,0.29,-0.10,9.36,79.1,-116
4853,173.820,0.61,0.67,0.64,0.20,-0.10,9.35,79.1,-116
4866,174.318,0.67,0.75,0.69,0.00,-0.29,9.55,71.9,-107
4867,174.518,0.67,0.89,0.88,0.00,-0.15,9.45,71.9,-107
4868,174.718,0.67,1.16,1.13,0.00,-0.29,9.34,71.9,-107
4869,174.918,0.67,1.20,1.13,-0.10,-0.39,8.70,71.9,-107
4870,175.118,0.59,1.00,0.98,-0.20,0.10,8.61,71.9,-107
4871,175.318,0.61,1.16,1.03,0.20,-0.49,8.52,71.9,-107
4872,175.418,0.64,0.84,0.78,-0.05,-0.29,9.04,73.5,-115
4873,175.518,0.80,0.75,0.69,0.00,-0.29,9.03,73.5,-115
4874,175.618,0.93,0.76,0.74,0.05,-0.20,9.02,73.5,-115
4875,175.719,0.93,0.86,0.78,0.00,-0.34,8.47,73.5,-115
4876,175.819,1.10,0.79,0.78,0.00,-0.10,8.46,73.5,-115
4877,175.919,1.34,1.04,1.03,0.00,-0.15,8.45,73.5,-115
4878,176.002,1.59,0.71,0.69,0.00,-0.20,8.98,75.1,-108
4879,176.086,1.77,0.74,0.74,-0.05,-0.10,8.98,75.1,-108
4880,176.170,2.03,0.84,0.83,-0.05,-0.10,8.98,75.1,-108
4881,176.253,2.03,1.13,1.13,-0.05,-0.10,8.46,75.1,-108
4882,176.337,2.25,1.23,1.22,-0.05,-0.10,8.47,75.1,-108
4883,176.420,2.37,1.19,1.18,-0.05,-0.15,8.48,75.1,-108
4884,176.504,2.41,1.25,1.22,0.05,0.24,9.03,76.5,-112
4885,176.588,2.16,1.20,1.18,0.10,0.24,9.04,76.5,-112
4886,176.671,1.86,1.12,1.08,0.00,0.29,9.05,76.5,-112
4887,176.755,1.86,0.94,0.93,-0.05,0.15,8.52,76.5,-112
4888,176.838,1.64,0.90,0.88,-0.15,0.05,8.52,76.5,-112
4889,176.922,1.40,0.90,0.83,-0.29,-0.20,8.52,76.5,-112
4890,177.005,1.22,0.98,0.49,-0.69,-0.49,9.05,77.9,-108
4891,177.089,1.25,1.27,0.44,-1.18,0.20,9.05,77.9,-108
4892,177.173,1.34,1.13,0.93,0.10,-0.64,9.05,77.9,-108
4893,177.256,1.34,1.02,0.83,0.05,-0.59,8.52,77.9,-108
4894,177.340,1.30,1.07,0.98,0.20,-0.39,8.52,77.9,-108
4895,177.423,1.39,0.95,0.93,0.15,-0.10,8.52,77.9,-108
4896,177.523,1.31,1.44,1.42,0.00,-0.24,9.04,79.2,-104
4897,177.624,1.80,1.15,1.13,-0.10,-0.20,9.03,79.2,-104
4898,177.724,2.33,1.20,1.18,-0.24,-0.10,9.01,79.2,-104
4899,177.824,2.33,1.11,1.08,-0.24,-0.10,8.47,79.2,-104
4900,177.924,2.82,1.08,1.08,0.00,0.05,8.46,79.2,-104
4901,178.024,3.12,1.29,1.03,0.00,-0.78,8.45,79.2,-104
4902,178.108,3.26,0.68,0.54,-0.29,-0.29,8.98,80.4,-117
4903,178.192,2.64,0.89,0.69,-0.15,-0.54,8.98,80.4,-117
4904,178.275,2.29,0.92,0.78,0.00,-0.49,8.98,80.4,-117
4905,178.359,2.29,1.16,1.03,0.00,-0.54,8.46,80.4,-117
4906,178.442,2.05,1.03,1.03,-0.05,0.05,8.47,80.4,-117
4907,178.526,1.60,1.07,1.03,0.10,-0.29,8.48,80.4,-117
4908,178.609,1.38,1.33,0.93,-0.93,-0.20,9.03,81.6,-115
4909,178.693,1.28,0.65,0.54,-0.34,-0.10,9.04,81.6,-115
4910,178.776,1.18,0.86,0.78,-0.34,-0.05,9.05,81.6,-115
4911,178.860,1.18,0.79,0.78,-0.05,0.05,8.52,81.6,-115
4912,178.944,1.07,0.88,0.88,0.00,0.05,8.52,81.6,-115
4913,179.027,1.02,1.32,1.32,0.05,-0.05,8.52,81.6,-115
4920,179.194,0.72,1.51,1.32,-0.24,-0.69,8.99,78.2,-102
4921,179.360,0.82,1.62,1.42,-0.34,-0.69,8.92,78.2,-102
4922,179.527,0.89,1.93,1.57,-1.13,-0.10,8.86,78.2,-102
4923,179.694,0.89,1.93,1.57,-1.13,0.10,8.28,78.2,-102
4924,179.861,0.99,1.87,1.62,-0.93,0.05,8.22,78.2,-102
4925,180.027,1.02,1.75,1.57,-0.78,0.00,8.16,78.2,-102
4926,180.127,1.17,0.67,0.64,0.05,-0.20,8.66,79.4,-101
4927,180.228,1.39,0.84,0.83,0.05,0.05,8.65,79.4,-101
4928,180.328,1.55,1.00,0.93,0.15,-0.34,8.63,79.4,-101
4929,180.428,1.55,1.12,0.98,0.05,-0.54,8.11,79.4,-101
4930,180.528,1.74,1.74,1.72,0.05,-0.29,8.10,79.4,-101
4931,180.628,1.92,1.32,1.18,0.44,0.39,8.09,79.4,-101
4932,180.712,2.08,1.29,1.18,0.05,-0.54,8.60,80.6,-102
4933,180.796,1.86,1.19,1.18,0.00,-0.20,8.60,80.6,-102
4934,180.879,1.78,1.26,1.22,0.05,-0.29,8.60,80.6,-102
4935,180.963,1.78,1.13,1.13,0.10,-0.05,8.10,80.6,-102
4936,181.046,1.68,1.23,1.22,0.10,0.00,8.11,80.6,-102
4937,181.130,1.61,1.28,1.27,0.00,0.15,8.13,80.6,-102
4938,181.213,1.59,0.77,0.74,0.00,-0.24,8.65,81.8,-104
4939,181.297,2.08,0.68,0.64,0.00,-0.24,8.66,81.8,-104
4940,181.380,2.49,0.81,0.74,0.00,-0.34,8.67,81.8,-104
4941,181.464,2.49,0.86,0.78,-0.10,-0.34,8.16,81.8,-104
4942,181.548,2.56,0.78,0.74,-0.05,-0.24,8.16,81.8,-104
4943,181.631,2.64,0.75,0.74,-0.05,-0.15,8.16,81.8,-104
4944,181.715,2.62,1.55,1.52,0.15,0.29,8.67,82.8,-104
4945,181.798,2.25,1.50,1.47,0.15,0.24,8.67,82.8,-104
4946,181.882,1.95,1.50,1.47,0.00,0.29,8.67,82.8,-104
4947,181.965,1.95,1.39,1.32,0.34,0.24,8.16,82.8,-104
4948,182.049,1.78,1.33,1.27,0.20,0.34,8.16,82.8,-104
4949,182.133,1.62,1.28,1.22,0.24,0.29,8.16,82.8,-104
4950,182.233,1.51,0.96,0.93,0.20,0.10,8.66,83.8,-114
4951,182.333,1.86,0.83,0.83,0.05,0.00,8.65,83.8,-114
4952,182.433,2.26,0.88,0.88,0.05,-0.05,8.63,83.8,-114
4953,182.533,2.26,0.88,0.88,0.00,0.00,8.11,83.8,-114
4954,182.633,2.65,0.90,0.88,0.00,-0.20,8.10,83.8,-114
4955,182.734,2.96,0.98,0.93,-0.05,-0.29,8.09,83.8,-114
4956,182.817,3.22,1.29,1.27,0.10,0.15,8.60,84.8,-112
4957,182.901,2.74,1.34,1.32,0.10,0.20,8.60,84.8,-112
4958,182.984,2.31,1.34,1.32,0.10,0.20,8.60,84.8,-112
4959,183.068,2.31,1.35,1.32,0.05,0.24,8.85,84.8,-112
4960,183.151,1.88,1.35,1.32,0.05,0.24,8.94,84.8,-112
4961,183.235,1.60,1.39,1.37,0.05,0.24,9.04,84.8,-112
4962,183.318,1.41,0.94,0.93,0.05,-0.15,9.71,85.7,-120
4963,183.402,1.84,0.84,0.83,0.05,-0.10,9.82,85.7,-120
4964,183.485,2.19,0.85,0.83,0.05,-0.15,9.94,85.7,-120
4965,183.569,2.19,0.85,0.83,0.05,-0.15,9.37,85.7,-120
4966,183.652,2.48,0.84,0.83,0.05,-0.10,9.38,85.7,-120
4967,183.735,2.76,0.87,0.83,0.15,-0.20,9.40,85.7,-120
4968,183.819,3.10,0.86,0.83,0.00,-0.20,10.00,86.5,-116
4969,183.903,2.43,0.90,0.88,0.00,-0.20,10.02,86.5,-116
4970,183.986,1.92,0.82,0.78,0.00,-0.24,10.03,86.5,-116
4971,184.070,1.92,0.89,0.88,0.00,-0.10,9.84,86.5,-116
4972,184.153,1.66,1.01,0.93,0.00,-0.39,9.96,86.5,-116
4973,184.237,1.46,0.93,0.88,0.10,-0.29,10.09,86.5,-116
4980,184.420,1.07,0.94,0.83,0.05,-0.44,10.73,82.5,-116
4981,184.603,0.92,0.99,0.93,0.00,-0.34,10.75,82.5,-116
4982,184.787,0.88,1.04,0.98,-0.05,-0.34,10.77,82.5,-116
4983,184.970,0.88,0.99,0.98,-0.10,-0.10,10.05,82.5,-116
4984,185.153,0.83,0.95,0.93,-0.05,-0.20,9.96,82.5,-116
4985,185.337,0.75,0.93,0.88,-0.05,-0.29,9.88,82.5,-116
4986,185.420,0.82,1.16,1.03,0.05,-0.54,10.51,83.6,-109
4987,185.504,0.85,1.12,0.98,0.00,-0.54,10.53,83.6,-109
4988,185.587,0.94,0.86,0.78,0.00,-0.34,10.55,83.6,-109
4989,185.671,0.94,0.90,0.83,0.00,-0.34,9.93,83.6,-109
4990,185.754,0.92,0.82,0.78,0.00,-0.24,9.93,83.6,-109
4991,185.838,0.90,0.81,0.78,0.00,-0.20,9.93,83.6,-109
4998,186.021,0.94,0.70,0.49,0.49,-0.05,10.44,79.9,-115
4999,186.204,0.94,0.59,0.39,0.44,-0.05,10.34,79.9,-115
5000,186.387,0.97,0.59,0.44,0.39,0.00,10.23,79.9,-115
5001,186.571,0.97,0.69,0.59,0.34,0.10,9.54,79.9,-115
5002,186.754,0.91,0.93,0.88,0.10,-0.29,9.44,79.9,-115
5003,186.937,0.89,1.01,0.98,0.05,-0.24,9.35,79.9,-115
5004,187.020,0.87,1.03,0.93,-0.10,-0.44,9.94,81.1,-111
5005,187.104,0.86,1.06,0.98,0.39,-0.05,9.94,81.1,-111
5006,187.188,0.81,1.27,0.98,-0.49,-0.64,9.94,81.1,-111
5007,187.271,0.81,1.08,0.88,-0.20,-0.59,9.35,81.1,-111
5008,187.355,0.74,1.29,1.03,-0.44,-0.64,9.35,81.1,-111
5009,187.438,0.71,1.02,0.88,-0.24,-0.44,9.35,81.1,-111
5010,187.522,0.75,0.94,0.78,-0.34,-0.39,9.94,82.2,-115
5011,187.605,1.26,1.03,0.83,-0.15,-0.59,9.94,82.2,-115
5012,187.689,1.61,1.02,0.83,0.00,-0.59,9.94,82.2,-115
5013,187.772,1.61,0.89,0.74,0.10,-0.49,9.37,82.2,-115
5014,187.856,1.80,0.94,0.93,-0.15,0.05,9.38,82.2,-115
5015,187.940,1.63,1.41,1.08,0.20,-0.88,9.40,82.2,-115
5016,188.023,1.46,0.94,0.49,-0.54,-0.59,10.00,83.2,-109
5017,188.107,1.59,0.97,0.49,-0.54,-0.64,10.02,83.2,-109
5018,188.190,1.60,1.00,0.49,-0.39,-0.78,10.03,83.2,-109
5019,188.274,1.60,1.12,0.49,-0.39,-0.93,9.44,83.2,-109
5020,188.357,1.40,1.14,0.59,-0.64,-0.74,9.44,83.2,-109
5021,188.441,1.27,1.32,0.69,-0.64,-0.93,9.44,83.2,-109
5022,188.541,1.20,1.34,0.34,-1.03,-0.78,10.02,84.2,-111
5023,188.641,1.10,1.27,0.29,-1.22,-0.20,10.00,84.2,-111
5024,188.742,0.97,1.44,0.24,-1.42,0.05,9.98,84.2,-111
5025,188.842,0.97,1.46,0.24,-1.42,0.20,9.38,84.2,-111
5026,188.942,0.95,1.62,0.74,-1.32,-0.59,9.37,84.2,-111
5027,189.042,0.94,1.77,0.93,-1.18,-0.93,9.35,84.2,-111
5034,189.209,1.14,0.95,0.83,-0.34,-0.29,9.86,80.5,-113
5035,189.375,1.02,1.04,0.93,-0.39,-0.24,9.78,80.5,-113
5036,189.542,0.95,1.09,1.03,-0.29,-0.20,9.70,80.5,-113
5037,189.709,0.95,1.50,1.42,-0.44,-0.20,9.13,80.5,-113
5038,189.876,0.97,1.86,1.72,-0.69,-0.24,9.13,80.5,-113
5039,190.042,0.88,1.80,1.62,-0.78,-0.05,9.13,80.5,-113
5040,190.126,0.92,0.71,0.59,-0.10,-0.39,9.78,81.6,-112
5041,190.209,0.92,0.81,0.78,-0.10,-0.20,9.86,81.6,-112
5042,190.293,0.92,0.93,0.83,-0.10,-0.39,9.94,81.6,-112
5043,190.377,0.92,1.08,0.98,-0.05,-0.44,9.37,81.6,-112
5044,190.460,0.79,1.12,1.03,0.05,-0.44,9.38,81.6,-112
5045,190.544,0.72,0.96,0.93,0.20,-0.15,9.40,81.6,-112
5046,190.644,0.80,1.22,1.13,0.15,-0.44,9.98,82.7,-106
5047,190.744,1.27,1.16,1.13,0.10,-0.24,9.98,82.7,-106
5048,190.844,1.61,1.12,0.98,0.24,-0.49,9.98,82.7,-106
5049,190.944,1.61,1.02,0.83,0.00,-0.59,9.38,82.7,-106
5050,191.045,1.61,1.06,1.03,0.05,-0.24,9.37,82.7,-106
5051,191.145,1.47,1.07,1.03,-0.05,-0.29,9.35,82.7,-106
5052,191.228,1.35,0.81,0.64,0.49,-0.05,9.94,83.7,-104
5053,191.312,1.47,0.94,0.64,0.69,0.10,9.94,83.7,-104
5054,191.395,1.75,0.94,0.69,0.64,-0.10,9.94,83.7,-104
5055,191.479,1.75,1.05,0.78,0.49,-0.49,9.35,83.7,-104
5056,191.563,2.10,0.96,0.74,0.44,-0.44,9.35,83.7,-104
5057,191.646,2.53,1.11,0.88,0.34,-0.59,9.35,83.7,-104
5058,191.730,2.82,1.48,1.47,0.10,0.10,9.94,84.7,-105
5059,191.813,2.28,1.34,1.32,0.10,0.20,9.94,84.7,-105
5060,191.897,1.93,1.14,1.13,0.10,0.10,9.94,84.7,-105
5061,191.980,1.93,1.17,1.13,0.29,-0.15,9.35,84.7,-105
5062,192.064,1.67,0.96,0.93,0.20,-0.15,9.35,84.7,-105
5063,192.147,1.46,0.97,0.88,0.39,0.05,9.35,84.7,-105
5064,192.231,1.27,1.13,1.13,0.10,-0.05,9.94,85.6,-107
5065,192.315,1.12,1.03,1.03,0.10,0.00,9.94,85.6,-107
5066,192.398,1.03,0.99,0.98,0.15,0.05,9.94,85.6,-107
5067,192.482,1.03,1.18,1.18,0.05,0.05,9.37,85.6,-107
5068,192.565,0.98,1.27,1.27,0.05,0.00,9.38,85.6,-107
5069,192.649,0.91,1.13,1.13,0.00,0.00,9.40,85.6,-107
5082,193.247,0.95,0.94,0.69,-0.10,-0.64,9.52,77.3,-113
5083,193.447,0.92,0.99,0.74,-0.29,-0.59,9.43,77.3,-113
5084,193.647,0.95,0.99,0.74,-0.39,-0.54,9.35,77.3,-113
5085,193.847,0.95,0.95,0.69,-0.49,-0.44,8.70,77.3,-113
5086,194.047,0.90,0.75,0.54,-0.39,-0.34,8.61,77.3,-113
5087,194.247,0.92,0.55,0.44,-0.15,-0.29,8.52,77.3,-113
5088,194.331,0.97,0.92,0.83,0.00,-0.39,9.06,78.6,-116
5089,194.415,0.80,0.43,0.39,0.10,-0.15,9.06,78.6,-116
5090,194.498,0.82,1.06,1.03,-0.10,-0.24,9.06,78.6,-116
5091,194.582,0.82,0.94,0.78,0.15,-0.49,8.52,78.6,-116
5092,194.665,0.87,0.83,0.78,0.10,-0.24,8.52,78.6,-116
5093,194.749,0.86,0.92,0.88,0.10,-0.24,8.52,78.6,-116
5094,194.849,0.86,1.10,0.88,0.29,-0.59,9.04,79.9,-122
5095,194.949,0.86,1.05,0.93,0.05,-0.49,9.03,79.9,-122
5096,195.049,0.83,1.06,0.93,-0.10,-0.49,9.02,79.9,-122
5097,195.150,0.83,0.94,0.88,-0.20,-0.24,8.47,79.9,-122
5098,195.250,0.77,0.75,0.69,-0.29,0.00,8.46,79.9,-122
5099,195.350,0.77,1.54,0.29,-1.32,0.74,8.45,79.9,-122
5112,195.849,0.87,0.84,0.49,0.00,-0.69,8.66,72.5,-116
5113,196.049,0.76,1.54,0.93,0.05,-1.22,8.57,72.5,-116
5114,196.249,0.68,1.42,1.18,0.10,-0.78,8.49,72.5,-116
5115,196.449,0.68,1.55,1.47,-0.49,-0.10,7.98,72.5,-116
5116,196.649,0.66,0.18,0.15,0.10,0.00,7.97,72.5,-116
5117,196.849,0.66,0.16,0.15,0.05,-0.05,7.96,72.5,-116
5118,196.949,0.67,0.75,0.64,-0.05,-0.39,8.51,74.1,-113
5119,197.049,0.67,0.99,0.88,-0.05,-0.44,8.57,74.1,-113
5120,197.149,0.70,0.99,0.88,0.05,-0.44,8.63,74.1,-113
5121,197.250,0.70,0.88,0.78,0.00,-0.39,8.12,74.1,-113
5122,197.350,0.67,1.08,0.98,0.05,-0.44,8.10,74.1,-113
5123,197.450,0.61,0.92,0.88,0.24,0.00,8.09,74.1,-113
5124,197.534,0.55,0.92,0.88,0.00,-0.24,8.60,75.6,-120
5125,197.617,0.54,0.69,0.69,-0.05,-0.05,8.60,75.6,-120
5126,197.701,0.53,0.80,0.69,-0.29,-0.29,8.60,75.6,-120
5127,197.784,0.53,0.67,0.44,-0.24,-0.44,8.16,75.6,-120
5128,197.868,0.50,0.82,0.59,-0.20,-0.54,8.23,75.6,-120
5129,197.951,0.50,1.32,0.93,-0.64,-0.69,8.30,75.6,-120
5130,198.035,0.61,1.22,0.78,-0.05,-0.93,8.90,77.0,-111
5131,198.118,0.57,1.22,0.98,-0.34,-0.64,8.98,77.0,-111
5132,198.202,0.67,0.98,0.88,-0.39,0.15,9.05,77.0,-111
5133,198.286,0.67,0.91,0.74,-0.49,0.20,8.52,77.0,-111
5134,198.369,0.55,0.80,0.69,-0.39,-0.10,8.52,77.0,-111
5135,198.453,0.69,1.19,1.08,-0.24,-0.44,8.52,77.0,-111
5136,198.536,1.19,1.21,1.13,0.00,-0.44,9.05,78.4,-102
5137,198.620,1.73,1.29,1.22,0.00,-0.39,9.05,78.4,-102
5138,198.703,2.18,1.24,1.22,-0.10,-0.20,9.05,78.4,-102
5139,198.787,2.18,1.23,1.18,-0.34,-0.05,8.52,78.4,-102
5140,198.870,2.54,1.21,0.88,-0.78,-0.24,8.52,78.4,-102
5141,198.954,2.89,1.11,1.08,0.00,-0.24,8.52,78.4,-102
5142,199.038,3.18,0.76,0.74,0.20,0.05,9.05,79.6,-105
5143,199.121,2.59,1.31,1.22,0.29,0.34,9.05,79.6,-105
5144,199.205,2.15,1.83,1.62,0.44,0.74,9.05,79.6,-105
5145,199.289,2.15,1.92,1.76,0.74,0.15,8.52,79.6,-105
5146,199.373,1.79,1.84,1.72,0.39,-0.54,8.52,79.6,-105
5147,199.456,1.59,1.61,1.52,0.44,-0.29,8.52,79.6,-105
5148,199.556,1.37,1.13,1.13,-0.05,-0.10,9.04,80.8,-105
5149,199.657,1.23,0.98,0.98,-0.05,0.00,9.03,80.8,-105
5150,199.757,1.21,0.99,0.98,0.05,-0.15,9.01,80.8,-105
5151,199.857,1.21,0.89,0.88,0.00,-0.15,8.48,80.8,-105
5152,199.957,1.10,1.03,1.03,0.05,-0.10,8.48,80.8,-105
5153,200.057,1.06,1.43,1.42,0.15,-0.10,8.48,80.8,-105
5160,200.224,0.93,0.74,0.59,-0.10,-0.44,8.96,77.5,-109
5161,200.391,0.91,1.08,1.08,-0.10,0.00,8.91,77.5,-109
5162,200.557,0.93,1.31,1.27,-0.29,0.10,8.86,77.5,-109
5163,200.724,0.93,1.14,1.13,0.00,0.20,8.34,77.5,-109
5164,200.891,0.92,1.50,1.47,-0.29,0.00,8.34,77.5,-109
5165,201.057,0.93,0.93,0.93,0.00,0.00,8.34,77.5,-109
5166,201.141,0.96,1.03,0.93,-0.10,-0.44,8.92,78.8,-107
5167,201.225,0.93,1.20,0.93,-0.20,-0.74,8.99,78.8,-107
5168,201.308,0.89,0.87,0.69,0.00,-0.54,9.05,78.8,-107
5169,201.392,0.89,0.82,0.69,-0.05,-0.44,8.52,78.8,-107
5170,201.475,0.83,0.72,0.64,-0.15,-0.29,8.52,78.8,-107
5171,201.559,1.32,0.79,0.69,0.00,-0.39,8.52,78.8,-107
5172,201.659,2.03,0.97,0.88,-0.05,-0.39,9.04,80.1,-112
5173,201.759,1.77,0.92,0.83,0.00,-0.39,9.03,80.1,-112
5174,201.859,1.60,0.83,0.74,-0.05,-0.39,9.01,80.1,-112
5175,201.959,1.60,0.83,0.74,-0.05,-0.39,8.48,80.1,-112
5176,202.060,1.53,0.77,0.69,-0.05,-0.34,8.48,80.1,-112
5177,202.160,1.40,0.78,0.69,-0.15,-0.34,8.48,80.1,-112
5178,202.243,1.30,0.89,0.83,-0.20,-0.24,9.03,81.2,-111
5179,202.327,1.25,0.96,0.83,-0.20,-0.44,9.04,81.2,-111
5180,202.410,1.15,0.82,0.74,-0.15,-0.34,9.05,81.2,-111
5181,202.494,1.15,0.92,0.83,-0.20,-0.34,8.52,81.2,-111
5182,202.578,1.08,0.98,0.88,-0.24,-0.34,8.52,81.2,-111
5183,202.661,1.00,0.89,0.83,-0.24,-0.20,8.52,81.2,-111
5184,202.745,1.01,0.77,0.74,0.00,-0.24,9.05,82.3,-115
5185,202.828,0.85,0.64,0.59,0.00,-0.24,9.05,82.3,-115
5186,202.912,0.85,0.64,0.54,-0.05,-0.34,9.05,82.3,-115
5187,202.995,0.85,0.65,0.64,-0.05,-0.10,8.52,82.3,-115
5188,203.079,0.81,0.67,0.64,-0.10,-0.20,8.52,82.3,-115
5189,203.162,0.74,0.77,0.59,-0.49,0.00,8.52,82.3,-115
5196,203.346,0.83,0.84,0.83,0.10,-0.05,8.97,78.8,-107
5197,203.529,0.86,0.94,0.93,0.05,-0.10,8.90,78.8,-107
5198,203.712,0.76,1.06,1.03,-0.05,-0.24,8.82,78.8,-107
5199,203.895,0.76,1.19,1.18,-0.10,-0.15,8.23,78.8,-107
5200,204.078,0.73,1.22,1.22,0.00,0.00,8.16,78.8,-107
5201,204.261,0.74,1.19,1.18,0.15,0.05,8.09,78.8,-107
5202,204.345,0.92,1.24,0.78,-0.49,-0.83,8.60,80.1,-106
5203,204.429,0.87,1.34,0.88,-0.98,-0.24,8.60,80.1,-106
5204,204.512,0.77,1.15,0.78,-0.10,-0.83,8.60,80.1,-106
5205,204.596,0.77,0.95,0.74,-0.10,-0.59,8.46,80.1,-106
5206,204.679,0.73,0.86,0.74,-0.20,-0.39,8.55,80.1,-106
5207,204.763,0.87,0.77,0.69,-0.20,-0.29,8.64,80.1,-106
5214,204.929,2.88,1.10,1.08,0.00,-0.20,9.20,76.8,-108
5215,205.096,2.33,1.18,1.13,0.05,-0.34,9.23,76.8,-108
5216,205.263,1.96,1.25,1.22,0.05,-0.24,9.26,76.8,-108
5217,205.430,1.96,1.23,1.22,0.00,-0.10,8.65,76.8,-108
5218,205.596,1.62,1.18,1.18,-0.05,0.00,8.59,76.8,-108
5219,205.763,1.43,1.19,1.18,-0.15,0.15,8.52,76.8,-108
5220,205.863,1.35,0.84,0.69,-0.05,-0.49,9.04,78.2,-108
5221,205.963,1.95,1.08,0.83,-0.24,-0.64,9.03,78.2,-108
5222,206.063,2.41,0.95,0.83,-0.10,-0.44,9.01,78.2,-108
5223,206.164,2.41,0.64,0.59,-0.05,-0.24,8.48,78.2,-108
5224,206.264,2.69,0.46,0.44,0.00,-0.15,8.48,78.2,-108
5225,206.364,2.87,0.50,0.49,0.05,-0.10,8.48,78.2,-108
5226,206.448,2.98,0.88,0.74,0.39,-0.29,9.03,79.5,-108
5227,206.531,2.92,0.83,0.78,0.10,-0.24,9.04,79.5,-108
5228,206.615,2.99,0.74,0.64,0.24,-0.29,9.05,79.5,-108
5229,206.698,2.99,0.74,0.69,0.20,-0.20,8.85,79.5,-108
5230,206.782,3.03,0.77,0.74,0.10,-0.20,8.94,79.5,-108
5231,206.865,2.97,0.88,0.83,0.05,-0.29,9.04,79.5,-108
5232,206.949,2.89,1.62,1.52,-0.49,0.24,9.71,80.7,-108
5233,207.033,2.34,1.38,1.37,-0.15,0.00,9.82,80.7,-108
5234,207.116,1.91,1.13,1.13,0.00,-0.10,9.93,80.7,-108
5235,207.200,1.91,1.03,1.03,0.00,-0.10,9.37,80.7,-108
5236,207.283,1.50,1.01,0.98,-0.20,-0.15,9.38,80.7,-108
5237,207.367,1.19,1.04,0.98,0.05,-0.34,9.40,80.7,-108
5238,207.450,1.23,1.02,0.98,-0.15,-0.24,10.00,81.8,-114
5239,207.534,1.10,1.06,1.03,-0.05,-0.24,10.02,81.8,-114
5240,207.617,0.97,1.03,0.93,0.29,-0.34,10.03,81.8,-114
5241,207.701,0.97,1.09,0.74,0.74,-0.34,9.44,81.8,-114
5242,207.784,0.86,1.17,0.69,0.93,0.20,9.44,81.8,-114
5243,207.868,0.71,0.88,0.78,0.20,-0.34,9.44,81.8,-114
5244,207.968,0.69,0.93,0.88,-0.29,-0.10,10.02,82.9,-106
5245,208.068,1.17,1.15,1.08,-0.10,-0.39,10.00,82.9,-106
5246,208.168,1.62,0.96,0.93,0.15,-0.20,9.98,82.9,-106
5247,208.268,1.62,0.90,0.88,0.15,-0.10,9.38,82.9,-106
5248,208.368,1.92,0.89,0.88,0.15,0.00,9.37,82.9,-106
5249,208.468,2.14,0.99,0.98,0.15,0.00,9.35,82.9,-106
5250,208.552,2.45,0.96,0.93,0.10,-0.20,9.94,83.9,-107
5251,208.635,2.23,1.05,1.03,0.10,-0.20,9.94,83.9,-107
5252,208.719,2.13,1.18,1.18,0.15,0.00,9.94,83.9,-107
5253,208.802,2.13,1.37,1.37,0.05,-0.05,9.35,83.9,-107
5254,208.886,2.02,1.28,1.27,0.05,-0.05,9.35,83.9,-107
5255,208.970,1.90,1.18,1.18,0.00,-0.15,9.35,83.9,-107
5256,209.053,1.88,1.33,1.32,0.10,0.05,9.94,84.8,-111
5257,209.137,1.58,1.39,1.37,0.24,0.05,9.94,84.8,-111
5258,209.220,1.33,1.48,1.47,0.20,0.00,9.94,84.8,-111
5259,209.304,1.33,1.48,1.47,0.15,0.00,9.35,84.8,-111
5260,209.387,1.12,1.33,1.32,0.15,-0.05,9.35,84.8,-111
5261,209.471,0.97,1.04,1.03,0.15,0.00,9.35,84.8,-111
5262,209.554,0.91,0.79,0.78,0.10,-0.05,9.94,85.7,-106
5263,209.638,0.93,0.75,0.74,-0.05,-0.15,9.94,85.7,-106
5264,209.722,0.86,0.85,0.83,0.00,-0.15,9.94,85.7,-106
5265,209.805,0.86,0.88,0.83,-0.05,-0.29,9.37,85.7,-106
5266,209.889,0.92,1.03,0.98,-0.10,-0.29,9.38,85.7,-106
5267,209.972,1.14,1.06,1.03,-0.15,-0.20,9.40,85.7,-106
5268,210.072,1.45,1.01,0.98,-0.05,-0.24,9.98,86.5,-111
5269,210.173,1.20,1.07,0.98,0.00,-0.44,9.98,86.5,-111
5270,210.273,1.06,1.12,1.03,0.00,-0.44,9.98,86.5,-111
5271,210.373,1.06,1.13,1.08,0.00,-0.34,9.46,86.5,-111
5272,210.473,0.96,1.06,1.03,0.24,0.05,9.52,86.5,-111
5273,210.573,0.92,1.28,1.27,-0.05,-0.05,9.58,86.5,-111
5274,210.657,0.94,0.79,0.78,0.05,-0.05,10.27,87.3,-109
5275,210.740,0.80,0.76,0.74,0.15,-0.10,10.36,87.3,-109
5276,210.824,0.79,0.72,0.69,0.20,-0.10,10.44,87.3,-109
5277,210.908,0.79,0.70,0.69,0.15,-0.05,9.83,87.3,-109
5278,210.991,0.81,0.61,0.54,0.20,-0.20,9.83,87.3,-109
5279,211.075,0.83,0.65,0.59,0.20,-0.20,9.83,87.3,-109
5280,211.158,0.96,0.82,0.78,0.05,-0.24,10.44,88.1,-111
5281,211.242,1.11,0.72,0.69,0.05,-0.20,10.44,88.1,-111
5282,211.325,1.09,0.64,0.64,0.00,-0.05,10.44,88.1,-111
5283,211.409,1.09,0.70,0.69,0.00,-0.15,9.85,88.1,-111
5284,211.492,1.03,0.82,0.78,0.00,-0.24,9.86,88.1,-111
5285,211.576,1.00,0.84,0.83,0.05,-0.10,9.88,88.1,-111
5286,211.660,1.07,1.36,1.32,0.05,0.29,10.52,88.8,-114
5287,211.743,0.96,1.37,1.27,0.10,0.49,10.53,88.8,-114
5288,211.827,0.88,1.19,1.13,0.05,0.39,10.55,88.8,-114
5289,211.910,0.88,1.19,1.18,0.05,0.20,9.93,88.8,-114
5290,211.994,0.77,1.18,1.18,0.00,-0.15,9.93,88.8,-114
5291,212.077,0.70,1.18,1.18,0.05,-0.05,9.93,88.8,-114
5292,212.178,0.75,0.94,0.39,-0.34,-0.78,10.53,89.4,-113
5293,212.278,1.02,1.00,0.39,-0.24,-0.88,10.52,89.4,-113
5294,212.378,1.21,1.02,0.44,-0.24,-0.88,10.50,89.4,-113
5295,212.478,1.21,0.99,0.44,-0.10,-0.88,9.86,89.4,-113
5296,212.578,1.44,0.99,0.24,-0.24,-0.93,9.85,89.4,-113
5297,212.678,1.55,1.06,0.29,-0.29,-0.98,9.83,89.4,-113
5298,212.762,1.66,0.66,0.49,0.00,-0.44,10.44,90.0,-111
5299,212.846,1.85,0.63,0.49,0.05,-0.39,10.44,90.0,-111
5300,212.929,1.88,0.70,0.49,0.05,-0.49,10.44,90.0,-111
5301,213.013,1.88,0.74,0.59,0.00,-0.44,9.93,90.0,-111
5302,213.096,1.97,1.01,0.78,-0.24,-0.59,10.03,90.0,-111
5303,213.180,1.94,0.92,0.64,-0.44,-0.49,10.14,90.0,-111
5304,213.263,1.85,0.74,0.59,0.00,-0.44,10.89,90.6,-113
5305,213.347,2.32,0.83,0.64,0.00,-0.54,11.01,90.6,-113
5306,213.430,2.71,0.84,0.69,0.05,-0.49,11.13,90.6,-113
5307,213.513,2.71,0.79,0.69,0.05,-0.39,10.47,90.6,-113
5308,213.597,3.01,0.77,0.69,0.00,-0.34,10.47,90.6,-113
5309,213.680,3.20,0.82,0.78,0.00,-0.24,10.47,90.6,-113
5310,213.764,3.37,1.47,1.47,-0.05,-0.10,11.13,91.2,-113
5311,213.847,2.64,1.54,1.52,0.24,-0.05,11.13,91.2,-113
5312,213.931,2.08,1.38,1.37,0.10,-0.05,11.13,91.2,-113
5313,214.014,2.08,1.48,1.47,-0.05,0.15,10.57,91.2,-113
5314,214.098,1.68,1.50,1.47,-0.05,0.29,10.66,91.2,-113
5315,214.181,1.42,1.41,1.37,-0.05,0.34,10.76,91.2,-113
5316,214.265,1.30,1.27,0.98,-0.64,-0.49,11.54,91.7,-107
5317,214.349,0.96,1.26,1.03,-0.64,-0.34,11.65,91.7,-107
5318,214.432,0.85,1.17,1.03,-0.49,-0.24,11.77,91.7,-107
5319,214.516,0.85,1.21,1.08,-0.54,-0.15,11.09,91.7,-107
5320,214.600,0.67,1.01,0.93,-0.39,-0.10,11.12,91.7,-107
5321,214.683,0.65,1.01,0.93,-0.39,-0.05,11.14,91.7,-107
5322,214.783,0.69,0.96,0.88,-0.15,-0.34,11.83,92.2,-117
5323,214.883,0.62,1.01,0.98,-0.15,-0.20,11.83,92.2,-117
5324,214.983,0.54,1.09,1.03,-0.34,-0.05,11.83,92.2,-117
5325,215.083,0.54,1.09,1.03,-0.34,0.05,11.12,92.2,-117
5326,215.183,0.48,1.00,0.98,-0.20,-0.05,11.10,92.2,-117
5327,215.283,0.47,1.08,0.98,-0.24,-0.39,11.07,92.2,-117
