sid,time,altitude,acceleration,acceleration-X,acceleration-Y,acceleration-Z,SPS,Reliability,RSSI
2724,-0.718,0.00,1.02,0.88,0.15,-0.49,0.00,100.0,-60
2725,-0.518,0.06,0.98,0.88,0.20,-0.39,0.00,100.0,-60
2726,-0.318,0.10,1.02,0.88,0.24,-0.44,0.00,100.0,-60
2727,-0.118,0.10,0.97,0.88,0.20,-0.34,0.00,100.0,-60
2728,0.082,0.03,1.01,0.88,0.20,-0.44,0.00,100.0,-60
2729,0.282,0.04,0.92,0.78,0.20,-0.44,0.00,100.0,-60
2730,0.366,0.11,0.98,0.88,0.15,-0.39,5.54,100.0,-60
2731,0.449,0.10,1.06,0.93,0.24,-0.44,5.14,100.0,-60
2732,0.533,0.08,1.01,0.83,0.29,-0.49,4.80,100.0,-60
2733,0.617,0.08,1.03,0.88,0.20,-0.49,4.50,100.0,-60
2734,0.700,-0.02,1.00,0.88,0.24,-0.39,4.23,100.0,-60
2735,0.784,-0.09,1.08,0.93,0.24,-0.49,4.00,100.0,-60
2736,0.885,-0.02,0.95,0.83,0.24,-0.39,7.49,100.0,-63
2737,0.986,0.05,1.04,0.93,0.24,-0.39,7.04,100.0,-63
2738,1.086,-0.02,1.02,0.88,0.24,-0.44,6.65,100.0,-63
2739,1.187,-0.02,0.99,0.83,0.29,-0.44,6.30,100.0,-63
2740,1.288,-0.13,1.06,0.93,0.24,-0.44,5.98,100.0,-63
2741,1.389,-0.14,1.01,0.88,0.20,-0.44,5.70,100.0,-63
2742,1.473,-0.16,0.93,0.83,0.15,-0.39,8.22,100.0,-60
2743,1.556,-0.16,0.98,0.88,0.20,-0.39,7.91,100.0,-60
2744,1.640,-0.13,0.98,0.88,0.20,-0.39,7.63,100.0,-60
2745,1.724,-0.13,1.00,0.88,0.24,-0.39,7.37,100.0,-60
2746,1.808,-0.14,0.93,0.83,0.24,-0.34,7.13,100.0,-60
2747,1.891,-0.08,1.00,0.88,0.24,-0.39,6.90,100.0,-60
2748,1.975,0.01,0.92,0.78,0.20,-0.44,8.91,100.0,-63
2749,2.058,0.01,1.01,0.88,0.20,-0.44,8.64,100.0,-63
2750,2.142,0.03,1.01,0.88,0.20,-0.44,8.39,100.0,-63
2751,2.225,0.03,0.98,0.88,0.20,-0.39,8.15,100.0,-63
2752,2.309,-0.01,1.02,0.88,0.24,-0.44,7.93,100.0,-63
2753,2.392,-0.04,0.99,0.83,0.20,-0.49,7.72,100.0,-63
2754,2.476,0.00,1.02,0.88,0.15,-0.49,9.39,100.0,-66
2755,2.559,0.02,0.94,0.83,0.20,-0.39,9.15,100.0,-66
2756,2.643,0.03,0.97,0.78,0.29,-0.49,8.93,100.0,-66
2757,2.727,0.03,1.05,0.93,0.20,-0.44,8.71,100.0,-66
2790,5.688,-0.08,0.97,0.83,0.24,-0.44,11.24,100.0,-64
2791,5.771,-0.01,1.03,0.88,0.29,-0.44,11.10,100.0,-64
2792,5.855,-0.09,0.97,0.83,0.24,-0.44,10.95,100.0,-64
2793,5.939,-0.09,1.01,0.88,0.20,-0.44,10.82,100.0,-64
2794,6.022,-0.14,1.01,0.88,0.20,-0.44,10.68,100.0,-64
2795,6.106,-0.11,0.93,0.83,0.24,-0.34,10.55,100.0,-64
2796,6.189,-0.08,0.96,0.83,0.20,-0.44,10.42,100.0,-65
2797,6.273,0.04,0.99,0.83,0.29,-0.44,10.30,100.0,-65
2798,6.356,-0.01,0.95,0.83,0.24,-0.39,10.18,100.0,-65
2799,6.440,-0.01,0.96,0.83,0.20,-0.44,10.06,100.0,-65
2800,6.523,-0.09,1.07,0.93,0.29,-0.44,9.94,100.0,-65
2801,6.606,-0.11,1.00,0.88,0.24,-0.39,9.83,100.0,-65
2802,6.690,-0.11,1.03,0.88,0.20,-0.49,10.53,100.0,-65
2803,6.773,0.01,1.02,0.88,0.24,-0.44,10.41,100.0,-65
2804,6.857,-0.05,1.02,0.88,0.24,-0.44,10.30,100.0,-65
2805,6.940,-0.05,1.02,0.88,0.24,-0.44,10.19,100.0,-65
2806,7.023,-0.03,0.95,0.83,0.29,-0.34,10.08,100.0,-65
2807,7.107,-0.12,0.92,0.83,0.20,-0.34,9.97,100.0,-65
2808,7.191,-0.11,1.01,0.88,0.20,-0.44,10.62,100.0,-66
2809,7.275,-0.10,1.01,0.88,0.20,-0.44,10.51,100.0,-66
2810,7.360,-0.14,0.95,0.83,0.24,-0.39,10.40,100.0,-66
2811,7.444,-0.14,1.03,0.88,0.29,-0.44,10.29,100.0,-66
2812,7.528,-0.21,0.97,0.83,0.24,-0.44,10.19,100.0,-66
2813,7.613,-0.17,1.07,0.93,0.20,-0.49,10.08,100.0,-66
2814,7.713,-0.18,1.02,0.88,0.24,-0.44,10.68,100.0,-68
2815,7.813,-0.16,0.96,0.83,0.20,-0.44,10.55,100.0,-68
2816,7.914,-0.14,1.02,0.88,0.24,-0.44,10.43,100.0,-68
2817,8.014,-0.14,0.97,0.83,0.29,-0.39,10.31,100.0,-68
2818,8.114,-0.20,0.95,0.83,0.24,-0.39,10.19,100.0,-68
2819,8.214,-0.23,1.00,0.88,0.24,-0.39,10.08,100.0,-68
2820,8.298,-0.21,0.97,0.83,0.24,-0.44,10.65,100.0,-63
2821,8.382,-0.18,1.01,0.88,0.20,-0.44,10.55,100.0,-63
2822,8.465,-0.16,1.03,0.88,0.20,-0.49,10.45,100.0,-63
2823,8.549,-0.16,1.03,0.93,0.20,-0.39,10.36,100.0,-63
2824,8.633,-0.16,1.01,0.88,0.20,-0.44,10.27,100.0,-63
2825,8.716,-0.16,0.97,0.83,0.24,-0.44,10.18,100.0,-63
2826,8.800,-0.10,0.96,0.83,0.20,-0.44,10.72,100.0,-69
2827,8.884,-0.13,1.02,0.88,0.24,-0.44,10.62,100.0,-69
2828,8.968,-0.16,1.03,0.93,0.20,-0.39,10.53,100.0,-69
2829,9.051,-0.16,0.96,0.88,0.15,-0.34,10.44,100.0,-69
2830,9.135,-0.22,0.97,0.88,0.20,-0.34,10.35,100.0,-69
2831,9.219,-0.24,0.97,0.83,0.24,-0.44,10.27,100.0,-69
2832,9.302,-0.23,0.99,0.83,0.20,-0.49,10.78,100.0,-71
2833,9.386,-0.11,1.00,0.88,0.15,-0.44,10.69,100.0,-71
2834,9.470,-0.09,0.94,0.83,0.20,-0.39,10.60,100.0,-71
2835,9.553,-0.09,1.04,0.88,0.24,-0.49,10.51,100.0,-71
2836,9.637,-0.08,1.02,0.88,0.24,-0.44,10.43,100.0,-71
2837,9.721,-0.08,1.05,0.93,0.20,-0.44,10.35,100.0,-71
2838,9.821,-0.07,0.98,0.83,0.15,-0.49,10.82,100.0,-61
2839,9.921,-0.10,0.97,0.88,0.20,-0.34,10.71,100.0,-61
2840,10.022,-0.10,0.97,0.83,0.29,-0.39,10.61,100.0,-61
2841,10.122,-0.10,0.94,0.83,0.20,-0.39,10.52,100.0,-61
2842,10.223,-0.15,1.06,0.93,0.24,-0.44,10.42,100.0,-61
2843,10.323,-0.16,1.01,0.88,0.20,-0.44,10.33,100.0,-61
2844,10.407,-0.14,0.96,0.83,0.20,-0.44,10.79,100.0,-65
2845,10.490,-0.17,0.98,0.88,0.20,-0.39,10.71,100.0,-65
2846,10.574,-0.19,0.95,0.83,0.24,-0.39,10.63,100.0,-65
2847,10.657,-0.19,0.96,0.88,0.15,-0.34,10.55,100.0,-65
2848,10.741,-0.28,1.03,0.88,0.29,-0.44,10.47,100.0,-65
2849,10.825,-0.24,0.92,0.83,0.20,-0.34,10.40,100.0,-65
2850,10.908,-0.24,0.96,0.83,0.20,-0.44,10.84,100.0,-63
2851,10.992,-0.19,0.96,0.88,0.24,-0.29,10.76,100.0,-63
2852,11.076,-0.16,1.02,0.88,0.24,-0.44,10.68,100.0,-63
2853,11.159,-0.16,1.04,0.88,0.24,-0.49,10.61,100.0,-63
2854,11.243,-0.20,1.03,0.88,0.29,-0.44,10.53,100.0,-63
2855,11.327,-0.27,0.99,0.83,0.20,-0.49,10.46,100.0,-63
2856,11.410,-0.33,1.03,0.93,0.20,-0.39,11.07,100.0,-65
2857,11.494,-0.32,0.98,0.88,0.15,-0.39,11.18,100.0,-65
2858,11.578,-0.31,1.03,0.88,0.20,-0.49,11.29,100.0,-65
2859,11.661,-0.31,1.00,0.83,0.24,-0.49,11.40,100.0,-65
2860,11.745,-0.27,0.92,0.78,0.20,-0.44,11.52,100.0,-65
2861,11.829,-0.29,0.97,0.88,0.20,-0.34,10.99,100.0,-65
2862,11.929,-0.29,0.96,0.83,0.20,-0.44,11.50,100.0,-61
2863,12.029,-0.20,1.00,0.88,0.24,-0.39,11.48,100.0,-61
2864,12.129,-0.25,1.02,0.88,0.24,-0.44,11.47,100.0,-61
2865,12.230,-0.25,1.02,0.88,0.24,-0.44,11.45,100.0,-61
2866,12.330,-0.23,0.99,0.83,0.20,-0.49,11.43,100.0,-61
2867,12.430,-0.26,0.94,0.83,0.20,-0.39,10.91,100.0,-61
2868,12.513,-0.24,1.00,0.88,0.24,-0.39,11.45,100.0,-64
2869,12.597,-0.27,0.95,0.83,0.24,-0.39,11.47,100.0,-64
2870,12.681,-0.23,1.07,0.93,0.29,-0.44,11.48,100.0,-64
2871,12.765,-0.23,1.01,0.88,0.29,-0.39,11.50,100.0,-64
2872,12.848,-0.28,1.05,0.93,0.29,-0.39,11.52,100.0,-64
2873,12.932,-0.23,0.99,0.88,0.29,-0.34,11.00,100.0,-64
2874,13.016,-0.24,1.09,0.93,0.15,-0.54,11.52,100.0,-73
2875,13.099,-0.22,1.01,0.88,0.20,-0.44,11.52,100.0,-73
2876,13.183,-0.18,1.02,0.88,0.24,-0.44,11.52,100.0,-73
2877,13.266,-0.18,0.99,0.83,0.29,-0.44,11.52,100.0,-73
2878,13.350,-0.25,1.04,0.93,0.24,-0.39,11.52,100.0,-73
2879,13.434,-0.29,1.04,0.93,0.24,-0.39,11.00,100.0,-73
2880,13.517,-0.34,1.07,0.93,0.20,-0.49,11.52,100.0,-79
2881,13.601,-0.22,0.93,0.83,0.24,-0.34,11.52,100.0,-79
2882,13.685,-0.17,1.00,0.88,0.15,-0.44,11.52,100.0,-79
2883,13.768,-0.17,0.96,0.83,0.20,-0.44,11.52,100.0,-79
2884,13.852,-0.22,1.02,0.83,0.24,-0.54,11.52,100.0,-79
2885,13.936,-0.25,1.05,0.93,0.20,-0.44,10.99,100.0,-79
2886,14.036,-0.20,0.89,0.78,0.15,-0.39,11.50,100.0,-74
2887,14.137,-0.10,0.91,0.83,0.10,-0.34,11.48,100.0,-74
2888,14.237,-0.16,0.93,0.88,0.10,-0.29,11.47,100.0,-74
2889,14.337,-0.16,0.98,0.88,0.15,-0.39,10.41,100.0,-74
2890,14.438,-0.22,0.97,0.88,0.20,-0.34,10.38,100.0,-74
2891,14.538,-0.22,0.96,0.88,0.15,-0.34,10.36,100.0,-74
2892,14.622,-0.18,1.00,0.88,0.24,-0.39,11.06,100.0,-73
2893,14.705,-0.20,0.97,0.88,0.20,-0.34,11.06,100.0,-73
2894,14.789,-0.26,0.97,0.93,0.15,-0.24,11.06,100.0,-73
2895,14.872,-0.26,0.96,0.93,0.15,-0.20,11.06,100.0,-73
2896,14.956,-0.28,0.92,0.88,0.20,-0.15,11.06,100.0,-73
2897,15.040,-0.40,1.00,0.88,0.24,-0.39,11.06,100.0,-73
2898,15.123,-0.35,1.05,0.88,0.29,-0.49,11.75,100.0,-73
2899,15.207,-0.27,1.11,0.88,0.34,-0.59,11.75,100.0,-73
2900,15.291,-0.32,1.06,0.88,0.24,-0.54,11.75,100.0,-73
2901,15.374,-0.32,1.05,0.88,0.29,-0.49,11.05,100.0,-73
2902,15.458,-0.32,1.03,0.88,0.20,-0.49,11.05,100.0,-73
2903,15.542,-0.38,0.97,0.83,0.24,-0.44,11.05,100.0,-73
2904,15.625,-0.34,1.07,0.88,0.29,-0.54,11.74,100.0,-73
2905,15.709,-0.32,1.10,0.93,0.24,-0.54,11.74,100.0,-73
2906,15.793,-0.33,0.94,0.83,0.20,-0.39,11.74,100.0,-73
2907,15.876,-0.33,0.92,0.83,0.20,-0.34,11.05,100.0,-73
2908,15.960,-0.37,1.00,0.88,0.15,-0.44,11.05,100.0,-73
2909,16.044,-0.31,0.99,0.78,0.10,-0.59,11.05,100.0,-73
2910,16.127,-0.34,0.93,0.83,0.24,-0.34,11.75,100.0,-72
2911,16.211,-0.26,0.95,0.83,0.24,-0.39,11.75,100.0,-72
2912,16.295,-0.27,1.01,0.88,0.20,-0.44,11.75,100.0,-72
2913,16.378,-0.27,1.07,0.93,0.20,-0.49,11.08,100.0,-72
2914,16.462,-0.32,1.01,0.88,0.29,-0.39,11.10,100.0,-72
2915,16.546,-0.34,0.96,0.88,0.24,-0.29,11.12,100.0,-72
2916,16.646,-0.29,1.04,0.88,0.15,-0.54,11.82,100.0,-76
2917,16.746,-0.31,1.04,0.88,0.24,-0.49,11.82,100.0,-76
2918,16.847,-0.34,1.05,0.93,0.20,-0.44,11.82,100.0,-76
2919,16.947,-0.34,1.14,0.93,0.29,-0.59,11.10,100.0,-76
2920,17.047,-0.31,1.00,0.83,0.24,-0.49,11.08,100.0,-76
2921,17.148,-0.42,0.99,0.88,0.29,-0.34,11.06,100.0,-76
2922,17.231,-0.40,0.95,0.83,0.29,-0.34,11.75,100.0,-75
2923,17.315,-0.38,1.07,0.93,0.29,-0.44,11.75,100.0,-75
2924,17.399,-0.41,0.99,0.83,0.29,-0.44,11.75,100.0,-75
2925,17.482,-0.41,0.98,0.88,0.24,-0.34,11.06,100.0,-75
2926,17.566,-0.34,1.02,0.88,0.24,-0.44,11.06,100.0,-75
2927,17.650,-0.34,1.01,0.88,0.20,-0.44,11.06,100.0,-75
2928,17.733,-0.32,1.01,0.88,0.20,-0.44,11.75,100.0,-72
2929,17.817,-0.28,1.02,0.88,0.24,-0.44,11.75,100.0,-72
2930,17.901,-0.38,1.02,0.88,0.24,-0.44,11.75,100.0,-72
2931,17.984,-0.38,1.02,0.88,0.24,-0.44,11.06,100.0,-72
2932,18.068,-0.41,0.98,0.88,0.20,-0.39,11.06,100.0,-72
2933,18.152,-0.43,1.03,0.88,0.29,-0.44,11.06,100.0,-72
2934,18.235,-0.42,1.01,0.88,0.20,-0.44,11.75,100.0,-72
2935,18.319,-0.41,0.92,0.83,0.20,-0.34,11.75,100.0,-72
2936,18.403,-0.40,1.01,0.88,0.20,-0.44,11.75,100.0,-72
2937,18.486,-0.40,0.98,0.88,0.20,-0.39,11.08,100.0,-72
2938,18.570,-0.40,0.98,0.88,0.15,-0.39,11.10,100.0,-72
2939,18.654,-0.38,0.96,0.83,0.20,-0.44,11.12,100.0,-72
2940,18.754,-0.38,1.00,0.88,0.24,-0.39,11.82,100.0,-74
2941,18.854,-0.33,1.02,0.88,0.24,-0.44,11.82,100.0,-74
2942,18.955,-0.28,0.92,0.78,0.20,-0.44,11.82,100.0,-74
2943,19.055,-0.28,0.95,0.83,0.15,-0.44,11.10,100.0,-74
2944,19.156,-0.34,0.97,0.88,0.20,-0.34,11.08,100.0,-74
2945,19.256,-0.39,0.94,0.83,0.20,-0.39,11.06,100.0,-74
2946,19.339,-0.36,0.99,0.83,0.29,-0.44,11.75,100.0,-75
2947,19.423,-0.24,1.01,0.88,0.20,-0.44,11.75,100.0,-75
2948,19.506,-0.26,1.02,0.93,0.24,-0.34,11.75,100.0,-75
2949,19.589,-0.26,0.94,0.83,0.20,-0.39,11.06,100.0,-75
2950,19.673,-0.28,0.98,0.88,0.15,-0.39,11.06,100.0,-75
2951,19.756,-0.29,0.98,0.83,0.15,-0.49,11.06,100.0,-75
2952,19.840,-0.28,0.94,0.83,0.20,-0.39,11.75,100.0,-73
2953,19.924,-0.13,0.98,0.88,0.24,-0.34,11.75,100.0,-73
2954,20.008,-0.19,0.98,0.88,0.24,-0.34,11.75,100.0,-73
2955,20.092,-0.19,0.98,0.88,0.20,-0.39,11.06,100.0,-73
2956,20.176,-0.30,1.08,0.93,0.24,-0.49,11.06,100.0,-73
2957,20.260,-0.28,0.95,0.83,0.24,-0.39,11.06,100.0,-73
2958,20.344,-0.22,1.00,0.88,0.15,-0.44,11.75,100.0,-70
2959,20.427,-0.23,0.98,0.88,0.15,-0.39,11.75,100.0,-70
2960,20.511,-0.17,1.06,0.93,0.24,-0.44,11.75,100.0,-70
2961,20.595,-0.17,1.02,0.88,0.24,-0.44,11.08,100.0,-70
2962,20.678,-0.28,1.04,0.93,0.15,-0.44,11.10,100.0,-70
2963,20.762,-0.33,0.97,0.88,0.20,-0.34,11.12,100.0,-70
2964,20.862,-0.25,0.93,0.83,0.15,-0.39,11.82,100.0,-80
2965,20.962,-0.18,0.98,0.88,0.24,-0.34,11.82,100.0,-80
2966,21.063,-0.21,0.98,0.88,0.15,-0.39,11.82,100.0,-80
2967,21.163,-0.21,1.03,0.88,0.20,-0.49,11.10,100.0,-80
2968,21.263,-0.28,0.98,0.88,0.20,-0.39,11.08,100.0,-80
2969,21.364,-0.26,0.92,0.83,0.20,-0.34,11.06,100.0,-80
2970,21.447,-0.23,0.93,0.83,0.15,-0.39,11.75,100.0,-77
2971,21.531,-0.15,1.05,0.93,0.20,-0.44,11.75,100.0,-77
2972,21.615,-0.19,1.00,0.88,0.15,-0.44,11.75,100.0,-77
2973,21.698,-0.19,0.95,0.83,0.24,-0.39,11.06,100.0,-77
2974,21.782,-0.27,1.00,0.88,0.24,-0.39,11.06,100.0,-77
2975,21.866,-0.25,0.95,0.83,0.24,-0.39,11.06,100.0,-77
2976,21.949,-0.26,0.97,0.88,0.20,-0.34,11.75,100.0,-77
2977,22.033,-0.24,0.98,0.88,0.20,-0.39,11.75,100.0,-77
2978,22.117,-0.22,0.97,0.88,0.20,-0.34,11.75,100.0,-77
2979,22.200,-0.22,0.97,0.88,0.20,-0.34,11.06,100.0,-77
2980,22.284,-0.23,1.02,0.88,0.24,-0.44,11.06,100.0,-77
2981,22.368,-0.25,1.02,0.88,0.15,-0.49,11.06,100.0,-77
2982,22.451,-0.27,0.95,0.83,0.24,-0.39,11.75,100.0,-77
2983,22.535,-0.19,1.00,0.88,0.24,-0.39,11.75,100.0,-77
2984,22.619,-0.14,0.94,0.83,0.20,-0.39,11.75,100.0,-77
2985,22.702,-0.14,0.97,0.88,0.20,-0.34,11.08,100.0,-77
2986,22.786,-0.15,0.98,0.88,0.15,-0.39,11.10,100.0,-77
2987,22.870,-0.25,0.90,0.83,0.20,-0.29,11.12,100.0,-77
2988,22.953,-0.19,0.93,0.83,0.15,-0.39,11.84,100.0,-76
2989,23.037,-0.06,1.02,0.88,0.24,-0.44,11.86,100.0,-76
2990,23.121,-0.11,0.94,0.83,0.20,-0.39,11.88,100.0,-76
2991,23.204,-0.11,1.00,0.88,0.24,-0.39,11.19,100.0,-76
2992,23.288,-0.20,0.98,0.88,0.20,-0.39,11.19,100.0,-76
2993,23.372,-0.19,1.00,0.88,0.24,-0.39,11.19,100.0,-76
2994,23.472,-0.20,0.98,0.88,0.20,-0.39,11.86,100.0,-76
2995,23.572,-0.17,0.98,0.88,0.20,-0.39,11.84,100.0,-76
2996,23.673,-0.19,1.03,0.88,0.20,-0.49,11.82,100.0,-76
2997,23.773,-0.19,0.99,0.83,0.29,-0.44,11.10,100.0,-76
2998,23.873,-0.19,0.98,0.88,0.20,-0.39,11.08,100.0,-76
2999,23.974,-0.17,0.97,0.88,0.20,-0.34,11.06,100.0,-76
3000,24.057,-0.18,0.94,0.83,0.20,-0.39,11.75,100.0,-79
3001,24.141,-0.07,0.99,0.83,0.29,-0.44,11.75,100.0,-79
3002,24.224,-0.14,1.03,0.88,0.29,-0.44,11.75,100.0,-79
3003,24.308,-0.14,1.03,0.88,0.20,-0.49,11.06,100.0,-79
3004,24.391,-0.21,0.97,0.88,0.20,-0.34,11.06,100.0,-79
3005,24.475,-0.15,1.03,0.93,0.20,-0.39,11.06,100.0,-79
3006,24.558,-0.14,0.93,0.83,0.24,-0.34,11.75,100.0,-72
3007,24.642,-0.12,1.07,0.88,0.34,-0.49,11.75,100.0,-72
3008,24.726,-0.08,0.98,0.88,0.15,-0.39,11.75,100.0,-72
3009,24.809,-0.08,1.03,0.93,0.10,-0.44,11.06,100.0,-72
3010,24.893,-0.07,0.94,0.88,0.15,-0.29,11.06,100.0,-72
3011,24.977,-0.16,0.98,0.88,0.24,-0.34,11.06,100.0,-72
3012,25.060,-0.16,0.99,0.83,0.29,-0.44,11.75,100.0,-71
3013,25.144,-0.09,1.06,0.93,0.24,-0.44,11.75,100.0,-71
3014,25.228,-0.03,1.07,0.93,0.20,-0.49,11.75,100.0,-71
3015,25.311,-0.03,1.02,0.88,0.24,-0.44,11.08,100.0,-71
3016,25.395,-0.05,1.03,0.88,0.29,-0.44,11.10,100.0,-71
3017,25.479,-0.10,1.00,0.83,0.24,-0.49,11.12,100.0,-71
3018,25.579,-0.13,1.01,0.88,0.20,-0.44,11.82,100.0,-64
3019,25.679,-0.10,0.98,0.88,0.24,-0.34,11.82,100.0,-64
3020,25.780,-0.06,0.99,0.83,0.29,-0.44,11.82,100.0,-64
3021,25.880,-0.06,0.98,0.88,0.24,-0.34,11.10,100.0,-64
3022,25.980,-0.15,0.95,0.83,0.24,-0.39,11.08,100.0,-64
3023,26.081,-0.18,0.93,0.83,0.24,-0.34,11.06,100.0,-64
3024,26.164,-0.13,1.01,0.88,0.20,-0.44,11.75,100.0,-66
3025,26.248,-0.10,1.00,0.83,0.24,-0.49,11.75,100.0,-66
3026,26.332,-0.10,0.93,0.83,0.15,-0.39,11.75,100.0,-66
3027,26.415,-0.10,1.00,0.88,0.15,-0.44,11.06,100.0,-66
3028,26.499,-0.06,0.94,0.83,0.20,-0.39,11.06,100.0,-66
3029,26.583,-0.12,0.97,0.88,0.20,-0.34,11.06,100.0,-66
3030,26.666,-0.06,1.01,0.88,0.20,-0.44,11.75,100.0,-66
3031,26.750,-0.10,0.98,0.88,0.20,-0.39,11.75,100.0,-66
3032,26.834,-0.11,1.03,0.88,0.20,-0.49,11.75,100.0,-66
3033,26.917,-0.11,1.01,0.88,0.20,-0.44,11.06,100.0,-66
3034,27.001,-0.20,0.96,0.83,0.20,-0.44,11.06,100.0,-66
3035,27.085,-0.23,1.02,0.88,0.24,-0.44,11.06,100.0,-66
3036,27.168,-0.18,0.95,0.83,0.24,-0.39,11.75,100.0,-59
3037,27.252,-0.19,1.00,0.88,0.24,-0.39,11.75,100.0,-59
3038,27.336,-0.16,0.93,0.83,0.24,-0.34,11.75,100.0,-59
3039,27.419,-0.16,1.01,0.88,0.20,-0.44,11.08,100.0,-59
3040,27.503,-0.19,1.06,0.93,0.24,-0.44,11.10,100.0,-59
3041,27.587,-0.17,0.97,0.83,0.29,-0.39,11.12,100.0,-59
3042,27.687,-0.22,0.97,0.88,0.20,-0.34,11.82,100.0,-58
3043,27.787,-0.10,0.95,0.88,0.20,-0.29,11.82,100.0,-58
3044,27.887,-0.13,0.92,0.78,0.29,-0.39,11.82,100.0,-58
3045,27.987,-0.13,0.98,0.88,0.24,-0.34,11.10,100.0,-58
3046,28.088,-0.21,0.95,0.83,0.24,-0.39,11.08,100.0,-58
3047,28.188,-0.25,1.03,0.88,0.29,-0.44,11.06,100.0,-58
3048,28.271,-0.21,0.97,0.83,0.24,-0.44,11.75,100.0,-52
3049,28.355,-0.16,0.98,0.88,0.20,-0.39,11.75,100.0,-52
3050,28.439,-0.19,0.97,0.83,0.24,-0.44,11.75,100.0,-52
3051,28.522,-0.19,1.01,0.88,0.20,-0.44,11.06,100.0,-52
3052,28.606,-0.24,0.97,0.83,0.24,-0.44,11.06,100.0,-52
3053,28.690,-0.26,0.97,0.88,0.20,-0.34,11.06,100.0,-52
3054,28.773,-0.20,0.96,0.83,0.20,-0.44,11.75,100.0,-51
3055,28.857,-0.14,1.01,0.88,0.20,-0.44,11.75,100.0,-51
3056,28.941,-0.13,1.04,0.88,0.24,-0.49,11.75,100.0,-51
3057,29.024,-0.13,1.01,0.88,0.20,-0.44,11.06,100.0,-51
3058,29.108,-0.17,1.01,0.88,0.20,-0.44,11.06,100.0,-51
3059,29.192,-0.20,1.08,0.93,0.24,-0.49,11.06,100.0,-51
3060,29.275,-0.20,0.97,0.83,0.24,-0.44,11.75,100.0,-53
3061,29.359,-0.16,1.05,0.93,0.20,-0.44,11.75,100.0,-53
3062,29.443,-0.10,0.97,0.83,0.24,-0.44,11.75,100.0,-53
3063,29.526,-0.10,0.96,0.83,0.20,-0.44,11.08,100.0,-53
3064,29.610,-0.17,1.00,0.88,0.24,-0.39,11.10,100.0,-53
3065,29.694,-0.20,0.97,0.83,0.24,-0.44,11.12,100.0,-53
3066,29.777,-0.21,0.94,0.83,0.20,-0.39,11.84,100.0,-51
3067,29.861,-0.14,0.98,0.88,0.20,-0.39,11.86,100.0,-51
3068,29.945,-0.15,0.95,0.83,0.24,-0.39,11.89,100.0,-51
3069,30.029,-0.15,1.03,0.93,0.20,-0.39,11.19,100.0,-51
3070,30.112,-0.19,0.92,0.83,0.20,-0.34,11.19,100.0,-51
3071,30.196,-0.20,1.02,0.88,0.24,-0.44,11.19,100.0,-51
3072,30.296,-0.10,0.94,0.83,0.20,-0.39,11.86,100.0,-57
3073,30.396,-0.04,0.97,0.83,0.24,-0.44,11.84,100.0,-57
3074,30.497,-0.05,1.00,0.88,0.24,-0.39,11.82,100.0,-57
3075,30.597,-0.05,1.00,0.88,0.24,-0.39,11.10,100.0,-57
3076,30.697,-0.18,0.96,0.88,0.15,-0.34,11.08,100.0,-57
3077,30.798,-0.22,0.97,0.83,0.24,-0.44,11.06,100.0,-57
3078,30.881,-0.19,0.97,0.83,0.24,-0.44,11.75,100.0,-57
3079,30.965,-0.13,1.00,0.88,0.24,-0.39,11.75,100.0,-57
3080,31.049,-0.15,1.00,0.83,0.24,-0.49,11.75,100.0,-57
3081,31.132,-0.15,1.02,0.88,0.24,-0.44,11.06,100.0,-57
3082,31.216,-0.13,1.01,0.83,0.29,-0.49,11.06,100.0,-57
3083,31.300,-0.14,1.02,0.88,0.24,-0.44,11.06,100.0,-57
3084,31.384,-0.04,0.95,0.83,0.24,-0.39,11.75,100.0,-54
3085,31.467,-0.09,0.96,0.83,0.20,-0.44,11.75,100.0,-54
3086,31.551,-0.09,0.98,0.88,0.20,-0.39,11.75,100.0,-54
3087,31.634,-0.09,0.92,0.83,0.20,-0.34,11.06,100.0,-54
3088,31.718,-0.14,0.97,0.88,0.20,-0.34,11.06,100.0,-54
3089,31.802,-0.11,1.03,0.93,0.20,-0.39,11.06,100.0,-54
3090,31.885,-0.04,0.96,0.83,0.20,-0.44,11.75,100.0,-55
3091,31.969,0.00,0.99,0.83,0.20,-0.49,11.75,100.0,-55
3092,32.053,-0.02,1.03,0.93,0.20,-0.39,11.75,100.0,-55
3093,32.137,-0.02,0.99,0.83,0.29,-0.44,11.08,100.0,-55
3094,32.220,0.01,0.93,0.83,0.24,-0.34,11.10,100.0,-55
3095,32.304,-0.11,0.92,0.83,0.20,-0.34,11.12,100.0,-55
3096,32.404,-0.13,1.03,0.88,0.20,-0.49,11.82,100.0,-54
3097,32.504,-0.18,1.00,0.88,0.24,-0.39,11.82,100.0,-54
3098,32.605,-0.24,1.00,0.88,0.24,-0.39,11.82,100.0,-54
3099,32.705,-0.24,1.00,0.88,0.24,-0.39,11.10,100.0,-54
3100,32.805,-0.26,1.04,0.88,0.24,-0.49,11.08,100.0,-54
3101,32.906,-0.23,1.00,0.88,0.24,-0.39,11.06,100.0,-54
3102,32.989,-0.28,0.99,0.83,0.29,-0.44,11.75,100.0,-54
3103,33.073,-0.27,0.97,0.83,0.29,-0.39,11.75,100.0,-54
3104,33.157,-0.29,1.02,0.88,0.24,-0.44,11.75,100.0,-54
3105,33.240,-0.29,1.04,0.88,0.24,-0.49,11.06,100.0,-54
3106,33.324,-0.31,0.98,0.88,0.20,-0.39,11.06,100.0,-54
3107,33.408,-0.26,1.02,0.88,0.24,-0.44,11.06,100.0,-54
3108,33.491,-0.26,0.98,0.88,0.20,-0.39,11.75,100.0,-56
3109,33.575,-0.20,0.97,0.88,0.20,-0.34,11.75,100.0,-56
3110,33.659,-0.22,1.00,0.88,0.24,-0.39,11.75,100.0,-56
3111,33.742,-0.22,1.01,0.88,0.20,-0.44,11.06,100.0,-56
3112,33.826,-0.34,0.98,0.88,0.20,-0.39,11.06,100.0,-56
3113,33.910,-0.33,1.03,0.88,0.29,-0.44,11.06,100.0,-56
3114,33.994,-0.33,0.95,0.83,0.24,-0.39,11.75,100.0,-55
3115,34.077,-0.30,1.02,0.93,0.15,-0.39,11.75,100.0,-55
3116,34.161,-0.31,1.00,0.83,0.24,-0.49,11.75,100.0,-55
3117,34.245,-0.31,1.01,0.88,0.20,-0.44,11.08,100.0,-55
3118,34.328,-0.38,1.06,0.88,0.24,-0.54,11.10,100.0,-55
3119,34.412,-0.44,1.03,0.93,0.20,-0.39,11.12,100.0,-55
3120,34.512,-0.39,1.00,0.88,0.15,-0.44,11.82,100.0,-55
3121,34.613,-0.34,1.04,0.88,0.24,-0.49,11.82,100.0,-55
3122,34.713,-0.37,0.96,0.83,0.20,-0.44,11.82,100.0,-55
3123,34.813,-0.37,0.94,0.83,0.20,-0.39,11.10,100.0,-55
3124,34.913,-0.31,1.04,0.88,0.24,-0.49,11.08,100.0,-55
3125,35.014,-0.26,0.98,0.88,0.20,-0.39,11.06,100.0,-55
3126,35.097,-0.22,0.94,0.83,0.20,-0.39,11.75,100.0,-55
3127,35.181,-0.22,1.00,0.88,0.24,-0.39,11.75,100.0,-55
3128,35.265,-0.31,1.01,0.88,0.20,-0.44,11.75,100.0,-55
3129,35.348,-0.31,1.05,0.93,0.29,-0.39,11.06,100.0,-55
3130,35.432,-0.37,1.03,0.93,0.20,-0.39,11.06,100.0,-55
3131,35.516,-0.41,0.98,0.88,0.20,-0.39,11.06,100.0,-55
3132,35.599,-0.36,1.01,0.88,0.20,-0.44,11.75,100.0,-56
3133,35.683,-0.26,1.01,0.88,0.20,-0.44,11.75,100.0,-56
3134,35.767,-0.23,1.01,0.88,0.20,-0.44,11.75,100.0,-56
3135,35.850,-0.23,1.03,0.93,0.20,-0.39,11.06,100.0,-56
3136,35.934,-0.27,0.97,0.83,0.24,-0.44,11.06,100.0,-56
3137,36.018,-0.32,1.00,0.88,0.24,-0.39,11.06,100.0,-56
3138,36.101,-0.42,1.01,0.88,0.20,-0.44,11.75,100.0,-56
3139,36.185,-0.46,1.04,0.88,0.24,-0.49,11.75,100.0,-56
3140,36.269,-0.49,1.00,0.88,0.15,-0.44,11.75,100.0,-56
3141,36.352,-0.49,0.96,0.83,0.20,-0.44,11.08,100.0,-56
3142,36.436,-0.59,0.97,0.83,0.24,-0.44,11.10,100.0,-56
3143,36.520,-0.58,1.07,0.93,0.20,-0.49,11.12,100.0,-56
3144,36.620,-0.55,0.94,0.83,0.20,-0.39,11.82,100.0,-56
3145,36.720,-0.54,1.02,0.88,0.24,-0.44,11.82,100.0,-56
3146,36.821,-0.61,1.03,0.88,0.20,-0.49,11.82,100.0,-56
3147,36.921,-0.61,1.09,0.93,0.29,-0.49,11.10,100.0,-56
3148,37.021,-0.64,1.00,0.88,0.24,-0.39,11.08,100.0,-56
3149,37.122,-0.64,0.95,0.83,0.24,-0.39,11.06,100.0,-56
3150,37.205,-0.53,0.88,0.74,0.20,-0.44,11.75,100.0,-57
3151,37.289,-0.55,0.93,0.78,0.24,-0.44,11.75,100.0,-57
3152,37.373,-0.58,1.03,0.88,0.29,-0.44,11.75,100.0,-57
3153,37.456,-0.58,1.06,0.93,0.24,-0.44,11.06,100.0,-57
3154,37.540,-0.64,0.95,0.83,0.24,-0.39,11.06,100.0,-57
3155,37.624,-0.60,0.93,0.78,0.24,-0.44,11.06,100.0,-57
3156,37.707,-0.51,1.00,0.88,0.15,-0.44,11.75,100.0,-57
3157,37.791,-0.51,1.02,0.88,0.24,-0.44,11.75,100.0,-57
3158,37.875,-0.55,1.00,0.88,0.24,-0.39,11.75,100.0,-57
3159,37.959,-0.55,1.02,0.88,0.24,-0.44,11.06,100.0,-57
3160,38.042,-0.53,0.92,0.78,0.20,-0.44,11.06,100.0,-57
3161,38.126,-0.57,1.02,0.88,0.24,-0.44,11.06,100.0,-57
3162,38.210,-0.52,0.98,0.88,0.20,-0.39,11.75,100.0,-57
3163,38.293,-0.41,1.00,0.88,0.15,-0.44,11.75,100.0,-57
3164,38.377,-0.44,1.01,0.88,0.20,-0.44,11.75,100.0,-57
3165,38.461,-0.44,1.01,0.88,0.20,-0.44,11.06,100.0,-57
3166,38.544,-0.57,1.00,0.83,0.24,-0.49,11.06,100.0,-57
3167,38.628,-0.61,1.00,0.88,0.24,-0.39,11.06,100.0,-57
3168,38.711,-0.60,0.92,0.78,0.20,-0.44,11.75,100.0,-56
3169,38.795,-0.61,1.05,0.93,0.20,-0.44,11.75,100.0,-56
3170,38.879,-0.62,1.02,0.88,0.24,-0.44,11.75,100.0,-56
3171,38.962,-0.62,1.00,0.83,0.24,-0.49,11.08,100.0,-56
3172,39.046,-0.66,1.01,0.88,0.20,-0.44,11.10,100.0,-56
3173,39.130,-0.66,0.97,0.88,0.20,-0.34,11.12,100.0,-56
3174,39.230,-0.68,0.96,0.83,0.20,-0.44,11.82,100.0,-57
3175,39.330,-0.63,1.02,0.88,0.24,-0.44,11.82,100.0,-57
3176,39.431,-0.67,0.97,0.83,0.24,-0.44,11.82,100.0,-57
3177,39.531,-0.67,1.00,0.88,0.24,-0.39,11.10,100.0,-57
3178,39.631,-0.70,1.03,0.93,0.20,-0.39,11.08,100.0,-57
3179,39.732,-0.73,1.04,0.88,0.24,-0.49,11.06,100.0,-57
3180,39.815,-0.65,0.96,0.83,0.20,-0.44,11.75,100.0,-56
3181,39.899,-0.53,1.00,0.83,0.24,-0.49,11.75,100.0,-56
3182,39.983,-0.58,1.02,0.88,0.24,-0.44,11.75,100.0,-56
3183,40.066,-0.58,1.07,0.93,0.20,-0.49,11.06,100.0,-56
3184,40.150,-0.62,0.98,0.88,0.20,-0.39,11.06,100.0,-56
3185,40.234,-0.62,1.02,0.88,0.24,-0.44,11.06,100.0,-56
3186,40.318,-0.55,0.96,0.83,0.20,-0.44,11.75,100.0,-56
3187,40.402,-0.54,0.98,0.88,0.20,-0.39,11.75,100.0,-56
3188,40.486,-0.51,0.96,0.88,0.24,-0.29,11.75,100.0,-56
3189,40.570,-0.51,0.95,0.83,0.24,-0.39,11.05,100.0,-56
3190,40.653,-0.47,0.98,0.88,0.20,-0.39,11.05,100.0,-56
3191,40.737,-0.43,0.92,0.78,0.20,-0.44,11.05,100.0,-56
3192,40.821,-0.43,7.40,7.30,0.59,-1.03,11.75,100.0,-61
3193,40.904,-0.35,5.33,5.29,0.34,-0.54,11.75,100.0,-61
3194,40.987,-0.20,4.60,4.56,0.10,-0.64,11.75,100.0,-61
3195,41.070,-0.20,3.87,3.82,0.20,-0.59,11.08,100.0,-61
3196,41.153,-0.09,3.43,3.38,0.20,-0.54,11.10,100.0,-61
3197,41.236,-0.03,3.19,3.14,0.15,-0.59,11.12,100.0,-61
3198,41.336,0.09,2.52,2.45,0.24,-0.54,11.82,100.0,-72
3199,41.436,1.64,2.53,2.45,0.20,-0.59,11.82,100.0,-72
3200,41.537,2.98,2.51,2.45,0.24,-0.49,11.82,100.0,-72
3201,41.637,2.98,2.56,2.50,0.24,-0.49,11.10,100.0,-72
3202,41.737,4.01,2.47,2.40,0.24,-0.54,11.08,100.0,-72
3203,41.838,4.90,2.56,2.50,0.24,-0.49,11.06,100.0,-72
3204,41.921,5.74,2.37,2.30,0.20,-0.54,11.75,100.0,-82
3205,42.005,9.06,2.33,2.25,0.20,-0.54,11.75,100.0,-82
3206,42.089,11.58,2.41,2.35,0.20,-0.49,11.75,100.0,-82
3207,42.172,11.58,2.37,2.30,0.20,-0.54,11.06,100.0,-82
3208,42.256,13.60,2.31,2.25,0.20,-0.49,11.06,100.0,-82
3209,42.340,15.35,2.39,2.30,0.15,-0.64,11.06,100.0,-82
3210,42.423,16.98,2.18,2.11,0.15,-0.54,11.75,100.0,-85
3211,42.507,21.31,2.34,2.25,0.20,-0.59,11.75,100.0,-85
3212,42.591,24.74,2.28,2.20,0.20,-0.54,11.75,100.0,-85
3213,42.674,24.74,2.35,2.25,0.20,-0.64,11.06,100.0,-85
3214,42.758,27.42,2.33,2.25,0.20,-0.54,11.06,100.0,-85
3215,42.842,29.75,2.30,2.25,0.20,-0.39,11.06,100.0,-85
3216,42.925,31.76,0.60,-0.49,0.05,-0.34,11.75,100.0,-81
3217,43.009,36.62,0.69,-0.54,0.20,-0.39,11.75,100.0,-81
3218,43.093,40.47,0.56,-0.49,0.10,-0.24,11.75,100.0,-81
3219,43.176,40.47,0.64,-0.49,0.10,-0.39,11.08,100.0,-81
3220,43.260,43.38,0.67,-0.54,0.20,-0.34,11.10,100.0,-81
3221,43.344,45.86,0.62,-0.49,0.15,-0.34,11.12,100.0,-81
3222,43.444,48.00,0.51,-0.39,0.15,-0.29,11.82,100.0,-77
3223,43.544,52.16,0.45,-0.34,0.15,-0.24,11.82,100.0,-77
3224,43.645,55.20,0.46,-0.34,0.20,-0.24,11.82,100.0,-77
3225,43.745,55.20,0.55,-0.39,0.24,-0.29,11.10,100.0,-77
3226,43.845,57.64,0.51,-0.39,0.15,-0.29,11.08,100.0,-77
3227,43.946,59.67,0.56,-0.49,0.20,-0.20,11.06,100.0,-77
3228,44.029,61.39,0.41,-0.29,0.15,-0.24,11.75,100.0,-79
3229,44.113,64.65,0.43,-0.29,0.20,-0.24,11.75,100.0,-79
3230,44.197,67.08,0.52,-0.24,0.24,-0.39,11.75,100.0,-79
3231,44.280,67.08,0.46,-0.24,0.20,-0.34,11.06,100.0,-79
3232,44.364,68.98,0.44,-0.29,0.15,-0.29,11.06,100.0,-79
3233,44.448,70.63,0.40,-0.24,0.20,-0.24,11.06,100.0,-79
3234,44.531,71.94,0.40,-0.20,0.20,-0.29,11.75,100.0,-80
3235,44.615,74.26,0.41,-0.24,0.15,-0.29,11.75,100.0,-80
3236,44.699,75.98,0.37,-0.20,0.20,-0.24,11.75,100.0,-80
3237,44.782,75.98,0.49,-0.24,0.24,-0.34,11.06,100.0,-80
3238,44.866,77.30,0.37,-0.20,0.20,-0.24,11.06,100.0,-80
3239,44.950,78.43,0.34,-0.20,0.20,-0.20,11.06,100.0,-80
3240,45.033,79.28,0.42,-0.15,0.20,-0.34,11.75,100.0,-81
3241,45.117,80.72,0.30,-0.15,0.10,-0.24,11.75,100.0,-81
3242,45.201,81.81,0.26,-0.10,0.15,-0.20,11.75,100.0,-81
3243,45.284,81.81,0.31,-0.20,0.15,-0.20,11.08,100.0,-81
3244,45.368,82.64,0.34,-0.10,0.15,-0.29,11.10,100.0,-81
3245,45.452,83.30,0.29,-0.15,0.15,-0.20,11.12,100.0,-81
3246,45.535,83.76,0.36,-0.15,0.15,-0.29,11.84,100.0,-80
3247,45.619,84.35,0.36,-0.15,0.15,-0.29,11.86,100.0,-80
3248,45.703,84.81,0.40,-0.15,0.15,-0.34,11.89,100.0,-80
3249,45.786,84.81,0.42,-0.15,0.20,-0.34,11.19,100.0,-80
3250,45.870,85.09,0.30,-0.10,0.15,-0.24,11.19,100.0,-80
3251,45.954,85.31,0.37,-0.10,0.20,-0.29,11.19,100.0,-80
3252,46.054,85.56,0.32,-0.10,0.10,-0.29,11.86,100.0,-80
3253,46.154,85.41,0.29,-0.15,0.15,-0.20,11.84,100.0,-80
3254,46.255,85.22,0.41,-0.10,0.20,-0.34,11.82,100.0,-80
3255,46.355,85.22,0.30,-0.15,0.10,-0.24,11.10,100.0,-80
3256,46.455,84.97,0.30,-0.10,0.15,-0.24,11.08,100.0,-80
3257,46.556,84.74,0.36,-0.15,0.15,-0.29,11.06,100.0,-80
3258,46.639,84.59,1.02,-0.29,-0.74,-0.64,11.75,100.0,-89
3259,46.723,80.15,9.47,9.21,-1.76,1.32,11.75,100.0,-89
3260,46.807,78.82,1.15,-0.78,0.05,-0.83,11.75,100.0,-89
3261,46.890,78.82,2.10,-1.81,-0.24,-1.03,11.06,100.0,-89
3262,46.974,79.10,5.19,-5.05,-0.88,-0.83,11.06,100.0,-89
3263,47.058,79.55,4.82,-4.36,-1.86,-0.88,11.06,100.0,-89
3264,47.141,79.93,1.32,-0.88,-0.10,-0.98,11.75,100.0,-83
3265,47.225,79.42,1.16,-0.83,-0.20,-0.78,11.75,100.0,-83
3266,47.309,78.82,0.99,-0.64,-0.20,-0.74,11.75,100.0,-83
3267,47.392,78.82,0.61,-0.15,-0.10,-0.59,11.06,100.0,-83
3268,47.476,78.34,0.64,-0.49,0.15,-0.39,11.06,100.0,-83
3269,47.560,77.98,0.93,-0.44,0.69,-0.44,11.06,100.0,-83
3270,47.643,77.81,1.26,-1.13,-0.15,-0.54,11.75,100.0,-92
3271,47.727,77.19,0.90,-0.78,-0.29,-0.34,11.75,100.0,-92
3272,47.811,76.64,0.53,-0.39,-0.29,-0.20,11.75,100.0,-92
3273,47.894,76.64,0.47,-0.44,-0.05,-0.15,11.08,100.0,-92
3274,47.978,76.18,2.38,-2.35,0.15,-0.34,11.10,100.0,-92
3275,48.062,75.88,3.05,-3.04,0.10,-0.20,11.12,100.0,-92
3276,48.162,75.63,0.96,-0.93,0.10,-0.20,11.82,100.0,-79
3277,48.262,75.28,0.83,-0.78,0.24,-0.10,11.82,100.0,-79
3278,48.363,75.01,0.71,-0.59,0.39,-0.05,11.82,100.0,-79
3279,48.463,75.01,0.71,-0.49,0.49,-0.15,11.10,100.0,-79
3280,48.563,74.78,0.97,-0.78,0.54,-0.20,11.08,100.0,-79
3281,48.664,74.63,1.16,-1.08,0.44,0.00,11.06,100.0,-79
3282,48.747,74.51,1.38,-1.27,0.29,-0.44,11.75,100.0,-81
3283,48.831,74.13,1.40,-1.27,0.20,-0.54,11.75,100.0,-81
3284,48.915,73.81,1.22,-1.13,0.24,-0.39,11.75,100.0,-81
3285,48.998,73.81,1.05,-0.98,0.15,-0.34,11.06,100.0,-81
3286,49.082,73.45,1.03,-0.98,0.10,-0.29,11.06,100.0,-81
3287,49.166,73.25,1.01,-0.98,0.10,-0.24,11.06,100.0,-81
3288,49.249,73.09,1.17,-1.08,0.39,-0.24,11.75,100.0,-96
3289,49.333,72.70,1.41,-1.32,0.44,-0.20,11.75,100.0,-96
3290,49.416,72.41,1.42,-1.32,0.49,-0.20,11.75,100.0,-96
3291,49.500,72.41,1.34,-1.27,0.39,-0.15,11.06,100.0,-96
3292,49.583,72.04,1.18,-1.13,0.34,-0.05,11.06,100.0,-96
3293,49.667,71.85,1.20,-1.18,0.24,0.05,11.06,100.0,-96
3294,49.750,71.71,1.06,-1.03,0.24,-0.05,11.75,100.0,-97
3295,49.834,71.12,1.07,-1.03,0.29,-0.05,11.75,100.0,-97
3296,49.918,70.71,1.28,-1.22,0.34,-0.10,11.75,100.0,-97
3297,50.001,70.71,1.19,-1.18,0.20,-0.05,11.08,100.0,-97
3298,50.085,70.30,1.06,-1.03,0.24,-0.05,11.10,100.0,-97
3299,50.169,69.99,0.95,-0.93,0.20,-0.05,11.12,100.0,-97
3300,50.269,69.73,0.94,-0.93,0.15,0.00,11.82,100.0,-92
3301,50.369,69.37,0.86,-0.83,0.20,-0.05,11.82,100.0,-92
3302,50.470,69.01,0.81,-0.78,0.20,-0.05,11.82,100.0,-92
3303,50.570,69.01,0.87,-0.83,0.24,0.00,11.10,100.0,-92
3304,50.670,68.70,0.96,-0.93,0.24,-0.05,11.08,100.0,-92
3305,50.770,68.47,1.11,-1.08,0.24,0.00,11.06,100.0,-92
3306,50.854,68.18,1.26,-1.22,0.05,-0.29,11.75,100.0,-83
3307,50.938,67.54,1.22,-1.18,0.10,-0.29,11.75,100.0,-83
3308,51.021,67.03,1.19,-1.13,0.15,-0.34,11.75,100.0,-83
3309,51.105,67.03,1.21,-1.13,0.29,-0.34,11.06,100.0,-83
3310,51.189,66.58,1.25,-1.18,0.24,-0.34,11.06,100.0,-83
3311,51.272,66.38,1.26,-1.18,0.29,-0.34,11.06,100.0,-83
3312,51.356,66.25,1.23,-1.03,0.39,-0.54,11.75,100.0,-80
3313,51.440,65.77,1.22,-1.03,0.44,-0.49,11.75,100.0,-80
3314,51.523,65.52,1.16,-0.93,0.44,-0.54,11.75,100.0,-80
3315,51.607,65.52,1.04,-0.83,0.39,-0.49,11.06,100.0,-80
3316,51.691,65.20,1.09,-0.98,0.34,-0.34,11.06,100.0,-80
3317,51.774,64.92,1.18,-1.13,0.24,-0.24,11.06,100.0,-80
3318,51.858,64.71,1.56,-1.47,0.39,-0.34,11.75,100.0,-87
3319,51.942,64.19,1.46,-1.42,0.24,-0.24,11.75,100.0,-87
3320,52.026,63.69,1.19,-1.18,0.15,-0.15,11.75,100.0,-87
3321,52.109,63.69,1.23,-1.22,0.05,-0.05,11.08,100.0,-87
3322,52.193,63.29,1.32,-1.32,0.05,0.05,11.10,100.0,-87
3323,52.277,62.94,1.24,-1.22,0.20,0.10,11.12,100.0,-87
3324,52.377,62.79,0.94,-0.88,0.20,-0.24,11.82,100.0,-91
3325,52.477,62.09,0.83,-0.78,0.24,-0.10,11.82,100.0,-91
3326,52.577,61.54,1.08,-1.03,0.29,-0.15,11.82,100.0,-91
3327,52.678,61.54,1.15,-1.08,0.34,-0.20,11.10,100.0,-91
3328,52.778,61.09,1.25,-1.18,0.34,-0.24,11.08,100.0,-91
3329,52.878,60.76,1.27,-1.22,0.29,-0.20,11.06,100.0,-91
3336,53.045,58.13,0.96,-0.93,0.20,-0.10,11.64,94.5,-90
3337,53.212,57.62,1.05,-1.03,0.15,-0.15,11.53,94.5,-90
3338,53.379,57.38,1.12,-1.08,0.29,-0.10,11.42,94.5,-90
3339,53.546,57.38,1.07,-1.03,0.29,-0.10,10.65,94.5,-90
3340,53.713,56.98,0.98,-0.93,0.24,-0.20,10.55,94.5,-90
3341,53.880,56.74,1.08,-1.03,0.24,-0.20,10.46,94.5,-90
3342,53.964,56.53,1.00,-0.98,0.15,-0.15,11.11,94.8,-79
3343,54.047,56.07,1.06,-1.03,0.15,-0.20,11.11,94.8,-79
3344,54.131,55.59,1.16,-1.13,0.10,-0.24,11.11,94.8,-79
3345,54.215,55.59,1.28,-1.27,0.10,-0.10,10.46,94.8,-79
3346,54.298,55.13,1.29,-1.27,0.10,-0.15,10.46,94.8,-79
3347,54.382,54.74,1.20,-1.18,0.15,-0.20,10.46,94.8,-79
3348,54.466,54.49,1.02,-0.98,0.29,0.00,11.11,95.1,-91
3349,54.549,54.13,1.08,-1.03,0.34,0.00,11.11,95.1,-91
3350,54.633,53.74,1.08,-1.03,0.34,0.00,11.11,95.1,-91
3351,54.716,53.74,1.02,-0.98,0.29,0.00,10.46,95.1,-91
3352,54.800,53.34,1.21,-1.18,0.29,0.00,10.46,95.1,-91
3353,54.884,53.09,1.26,-1.22,0.29,0.05,10.46,95.1,-91
3354,54.984,52.99,1.08,-1.08,0.05,-0.10,11.09,95.4,-80
3355,55.084,52.18,1.09,-1.08,0.10,-0.10,11.07,95.4,-80
3356,55.185,51.47,1.19,-1.18,0.15,-0.10,11.05,95.4,-80
3357,55.285,51.47,1.24,-1.22,0.15,-0.15,10.40,95.4,-80
3358,55.385,50.86,1.19,-1.18,0.15,-0.10,10.40,95.4,-80
3359,55.486,50.48,1.25,-1.22,0.15,-0.20,10.40,95.4,-80
3360,55.569,50.12,1.04,-1.03,0.05,-0.15,11.07,95.7,-76
3361,55.653,49.36,1.05,-1.03,0.10,-0.20,11.09,95.7,-76
3362,55.737,48.64,1.10,-1.08,0.10,-0.20,11.11,95.7,-76
3363,55.820,48.64,1.00,-0.98,0.10,-0.20,10.46,95.7,-76
3364,55.904,48.11,1.00,-0.98,0.05,-0.20,10.46,95.7,-76
3365,55.988,47.73,1.00,-0.98,0.10,-0.15,10.46,95.7,-76
3366,56.071,47.39,1.39,-1.37,0.20,-0.05,11.11,95.9,-92
3367,56.155,46.82,1.29,-1.27,0.20,0.00,11.11,95.9,-92
3368,56.239,46.33,1.34,-1.32,0.20,0.05,11.11,95.9,-92
3369,56.322,46.33,1.28,-1.27,0.05,0.05,10.46,95.9,-92
3370,56.406,45.83,1.23,-1.22,0.15,0.05,10.46,95.9,-92
3371,56.490,45.51,1.19,-1.18,0.15,0.05,10.46,95.9,-92
3372,56.573,45.33,1.31,-1.27,0.29,-0.05,11.11,96.2,-93
3373,56.657,44.64,1.36,-1.32,0.29,-0.15,11.11,96.2,-93
3374,56.741,44.07,1.32,-1.27,0.29,-0.20,11.11,96.2,-93
3375,56.824,44.07,1.38,-1.32,0.29,-0.24,10.46,96.2,-93
3376,56.908,43.55,1.36,-1.27,0.29,-0.39,10.46,96.2,-93
3377,56.992,43.18,1.34,-1.27,0.24,-0.34,10.46,96.2,-93
3378,57.092,42.87,1.51,-1.47,0.34,-0.05,11.09,96.4,-74
3379,57.192,42.24,1.43,-1.37,0.39,-0.10,11.07,96.4,-74
3380,57.293,41.74,1.24,-1.18,0.39,-0.05,11.05,96.4,-74
3381,57.393,41.74,1.39,-1.27,0.54,-0.10,10.40,96.4,-74
3382,57.493,41.32,1.53,-1.42,0.54,-0.20,10.40,96.4,-74
3383,57.594,40.91,1.56,-1.42,0.59,-0.24,10.40,96.4,-74
3384,57.677,40.62,1.62,-1.62,0.00,0.05,11.07,96.6,-76
3385,57.761,40.00,1.57,-1.57,0.05,0.00,11.09,96.6,-76
3386,57.845,39.45,1.68,-1.67,0.20,0.00,11.11,96.6,-76
3387,57.928,39.45,1.68,-1.67,0.20,-0.05,10.46,96.6,-76
3388,58.012,38.85,1.48,-1.47,0.15,0.00,10.46,96.6,-76
3389,58.095,38.31,1.67,-1.67,0.15,-0.05,10.46,96.6,-76
3390,58.179,37.95,1.37,-1.37,0.00,-0.05,11.11,96.8,-81
3391,58.263,36.99,1.43,-1.42,0.10,-0.05,11.11,96.8,-81
3392,58.346,36.29,1.38,-1.37,0.10,-0.05,11.11,96.8,-81
3393,58.430,36.29,1.29,-1.27,0.20,0.00,10.46,96.8,-81
3394,58.514,35.72,1.30,-1.27,0.24,0.00,10.46,96.8,-81
3395,58.597,35.25,1.43,-1.42,0.10,0.05,10.46,96.8,-81
3396,58.681,34.94,1.14,-1.13,0.20,-0.05,11.11,97.0,-75
3397,58.765,34.32,1.15,-1.13,0.20,-0.10,11.11,97.0,-75
3398,58.848,33.72,1.14,-1.13,0.15,0.00,11.11,97.0,-75
3399,58.932,33.72,1.19,-1.18,0.10,-0.15,10.46,97.0,-75
3400,59.016,33.14,1.13,-1.13,0.05,-0.10,10.46,97.0,-75
3401,59.099,32.68,1.03,-1.03,0.05,-0.10,10.46,97.0,-75
3402,59.200,32.30,1.53,-1.52,0.15,-0.15,11.09,97.2,-88
3403,59.300,31.66,1.43,-1.42,0.15,-0.10,11.07,97.2,-88
3404,59.400,31.11,1.23,-1.22,0.10,-0.05,11.05,97.2,-88
3405,59.500,31.11,1.28,-1.27,0.15,0.00,10.40,97.2,-88
3406,59.600,30.56,1.24,-1.22,0.20,0.00,10.40,97.2,-88
3407,59.700,30.15,1.14,-1.13,0.20,0.00,10.40,97.2,-88
3408,59.784,29.90,1.03,-1.03,0.00,-0.05,11.07,97.3,-74
3409,59.868,29.14,1.08,-1.08,0.05,-0.10,11.09,97.3,-74
3410,59.951,28.41,0.99,-0.98,0.05,-0.10,11.11,97.3,-74
3411,60.035,28.41,0.90,-0.88,0.05,-0.20,10.46,97.3,-74
3412,60.119,27.87,0.94,-0.93,0.05,-0.10,10.46,97.3,-74
3413,60.202,27.45,1.00,-0.98,0.10,-0.20,10.46,97.3,-74
3420,60.369,25.09,1.23,-1.22,0.10,0.05,11.01,92.1,-77
3421,60.536,24.50,1.23,-1.22,0.10,0.10,10.91,92.1,-77
3422,60.703,23.97,1.33,-1.32,0.10,0.05,10.82,92.1,-77
3423,60.870,23.97,1.24,-1.22,0.15,0.10,10.09,92.1,-77
3424,61.037,23.53,1.24,-1.22,0.20,0.05,10.00,92.1,-77
3425,61.204,23.20,1.13,-1.13,0.10,0.05,9.92,92.1,-77
3426,61.304,22.89,1.13,-1.13,0.10,0.05,10.52,92.6,-77
3427,61.404,22.28,1.10,-1.08,0.20,0.05,10.50,92.6,-77
3428,61.505,21.68,1.09,-1.08,0.15,0.00,10.48,92.6,-77
3429,61.605,21.68,1.15,-1.13,0.20,0.10,9.85,92.6,-77
3430,61.705,21.15,1.18,-1.18,0.15,0.00,9.83,92.6,-77
3431,61.806,20.81,1.10,-1.08,0.20,0.05,9.82,92.6,-77
3432,61.889,20.53,1.18,-1.18,0.15,0.00,10.43,93.0,-77
3433,61.973,19.72,1.19,-1.18,0.15,-0.05,10.43,93.0,-77
3434,62.056,18.97,1.13,-1.13,0.05,-0.10,10.43,93.0,-77
3435,62.140,18.97,1.14,-1.13,0.10,-0.10,9.83,93.0,-77
3436,62.224,18.36,1.28,-1.27,0.10,-0.10,9.85,93.0,-77
3437,62.307,17.83,1.24,-1.22,0.20,-0.10,9.87,93.0,-77
3438,62.391,17.43,1.27,-1.22,0.34,-0.05,10.50,93.4,-73
3439,62.475,16.69,1.24,-1.18,0.39,-0.05,10.52,93.4,-73
3440,62.558,16.07,1.24,-1.18,0.39,-0.05,10.54,93.4,-73
3441,62.642,16.07,1.26,-1.18,0.44,-0.05,10.00,93.4,-73
3442,62.726,15.56,1.30,-1.22,0.44,-0.05,10.09,93.4,-73
3443,62.809,15.27,1.26,-1.18,0.44,-0.10,10.18,93.4,-73
3444,62.893,15.02,1.96,-1.96,0.10,-0.10,10.91,93.8,-77
3445,62.977,14.12,2.06,-2.06,0.15,-0.05,11.01,93.8,-77
3446,63.060,13.46,1.87,-1.86,0.15,-0.05,11.11,93.8,-77
3447,63.144,13.46,1.63,-1.62,0.15,-0.10,10.46,93.8,-77
3448,63.228,12.88,1.39,-1.37,0.15,-0.15,10.46,93.8,-77
3449,63.311,12.34,1.29,-1.27,0.15,-0.15,10.46,93.8,-77
3450,63.395,11.96,0.98,-0.93,0.29,-0.05,11.11,94.2,-79
3451,63.479,11.33,1.02,-0.98,0.29,0.00,11.11,94.2,-79
3452,63.562,10.84,0.99,-0.93,0.34,-0.05,11.11,94.2,-79
3453,63.646,10.84,1.01,-0.93,0.39,-0.10,10.46,94.2,-79
3454,63.730,10.39,1.13,-1.03,0.44,-0.15,10.46,94.2,-79
3455,63.813,10.05,1.15,-1.03,0.49,-0.15,10.46,94.2,-79
3456,63.914,9.74,1.30,-1.22,0.34,-0.24,11.09,94.5,-79
3457,64.014,8.88,1.36,-1.32,0.29,-0.15,11.07,94.5,-79
3458,64.114,8.27,1.35,-1.32,0.24,-0.15,11.05,94.5,-79
3459,64.214,8.27,1.22,-1.18,0.24,-0.20,10.40,94.5,-79
3460,64.315,7.66,1.29,-1.22,0.29,-0.29,10.40,94.5,-79
3461,64.415,7.13,1.33,-1.27,0.34,-0.20,10.40,94.5,-79
3462,64.499,6.80,1.19,-1.18,0.15,-0.05,11.07,94.8,-92
3463,64.582,5.99,1.10,-1.08,0.20,-0.05,11.09,94.8,-92
3464,64.666,5.37,1.20,-1.18,0.24,-0.05,11.11,94.8,-92
3465,64.750,5.37,1.31,-1.27,0.29,0.00,10.46,94.8,-92
3466,64.833,4.72,1.14,-1.13,0.15,0.05,10.46,94.8,-92
3467,64.917,4.38,1.14,-1.13,0.20,0.00,10.46,94.8,-92
3468,65.001,4.06,1.24,-1.18,0.39,-0.05,11.11,95.1,-104
3469,65.084,3.25,1.18,-1.13,0.34,0.00,11.11,95.1,-104
3470,65.168,2.61,1.16,-1.08,0.44,0.00,11.11,95.1,-104
3471,65.252,2.61,1.13,-1.08,0.34,0.00,10.46,95.1,-104
3472,65.335,2.04,1.18,-1.13,0.34,0.00,10.46,95.1,-104
3473,65.419,1.64,1.20,-1.18,0.24,0.05,10.46,95.1,-104
3474,65.503,1.31,1.15,-0.78,0.15,0.83,11.11,95.4,-102
3475,65.586,0.91,1.00,-0.83,0.34,0.44,11.11,95.4,-102
3476,65.670,0.62,0.90,-0.83,0.24,0.24,11.11,95.4,-102
3477,65.754,0.62,0.97,-0.88,0.34,0.20,10.46,95.4,-102
3478,65.837,0.37,0.98,-0.83,0.39,0.34,10.46,95.4,-102
3479,65.921,0.22,0.87,-0.69,0.05,0.54,10.46,95.4,-102
3480,66.021,0.08,0.95,-0.83,0.34,0.29,11.09,95.7,-103
3481,66.121,0.00,0.90,-0.83,0.20,0.29,11.07,95.7,-103
3482,66.222,-0.12,0.97,-0.83,0.39,0.29,11.05,95.7,-103
3483,66.322,-0.12,0.88,-0.74,0.34,0.34,10.40,95.7,-103
3484,66.422,-0.22,0.93,-0.83,0.24,0.34,10.40,95.7,-103
3485,66.523,-0.31,1.00,-0.83,0.49,0.24,10.40,95.7,-103
3486,66.606,-0.30,0.91,-0.88,0.10,0.20,11.07,95.9,-105
3487,66.690,-0.27,0.92,-0.88,0.10,0.24,11.09,95.9,-105
3488,66.774,-0.30,0.93,-0.88,0.05,0.29,11.11,95.9,-105
3489,66.858,-0.30,0.93,-0.88,0.10,0.29,10.46,95.9,-105
3490,66.941,-0.38,0.93,-0.88,0.10,0.29,10.46,95.9,-105
3491,67.025,-0.41,0.96,-0.93,0.10,0.20,10.46,95.9,-105
3492,67.109,-0.31,1.03,-1.03,0.05,0.00,11.11,96.2,-111
3493,67.192,-0.34,0.93,-0.93,0.05,0.00,11.11,96.2,-111
3494,67.276,-0.40,1.04,-1.03,0.15,0.05,11.11,96.2,-111
3495,67.360,-0.40,1.18,-1.08,0.34,-0.34,10.46,96.2,-111
3496,67.443,-0.46,2.28,-0.93,-0.34,2.06,10.46,96.2,-111
3497,67.527,-0.49,1.15,-1.08,0.20,0.34,10.46,96.2,-111
3498,67.611,-0.45,1.06,-1.03,0.24,-0.05,11.11,96.4,-109
3499,67.694,-0.43,1.14,-1.08,0.34,-0.15,11.11,96.4,-109
3500,67.778,-0.38,1.13,-1.08,0.29,-0.20,11.11,96.4,-109
3501,67.861,-0.38,1.15,-1.08,0.34,-0.20,10.46,96.4,-109
3502,67.945,-0.46,1.16,-1.08,0.39,-0.20,10.46,96.4,-109
3503,68.029,-0.47,1.09,-1.03,0.34,-0.15,10.46,96.4,-109
3504,68.129,-0.44,1.09,-1.03,0.34,-0.10,11.09,96.6,-108
3505,68.229,-0.38,1.07,-1.03,0.29,0.00,11.07,96.6,-108
3506,68.330,-0.35,1.09,-1.03,0.34,-0.05,11.05,96.6,-108
3507,68.430,-0.35,1.10,-1.03,0.34,-0.20,10.40,96.6,-108
3508,68.530,-0.39,1.13,-1.03,0.44,-0.15,10.40,96.6,-108
3509,68.631,-0.41,1.14,-1.08,0.34,-0.10,10.40,96.6,-108
3510,68.714,-0.42,1.15,-1.08,0.39,0.00,11.07,96.8,-105
3511,68.798,-0.31,1.09,-1.03,0.34,-0.15,11.09,96.8,-105
3512,68.882,-0.39,1.04,-0.98,0.34,-0.10,11.11,96.8,-105
3513,68.965,-0.39,1.03,-0.98,0.29,-0.10,10.46,96.8,-105
3514,69.049,-0.41,1.11,-1.03,0.39,-0.10,10.46,96.8,-105
3515,69.133,-0.43,1.16,-1.08,0.39,-0.20,10.46,96.8,-105
3516,69.216,-0.40,1.11,-1.03,0.39,-0.10,11.11,97.0,-101
3517,69.300,-0.38,1.15,-1.08,0.39,-0.05,11.11,97.0,-101
3518,69.384,-0.37,1.25,-1.18,0.39,-0.15,11.11,97.0,-101
3519,69.467,-0.37,1.09,-1.03,0.34,-0.05,10.55,97.0,-101
3520,69.551,-0.42,1.04,-0.98,0.34,-0.10,10.65,97.0,-101
3521,69.635,-0.39,1.09,-1.03,0.34,-0.10,10.75,97.0,-101
3522,69.718,-0.37,1.09,-1.03,0.34,-0.15,11.53,97.2,-104
3523,69.802,-0.31,1.07,-0.98,0.39,-0.15,11.64,97.2,-104
3524,69.886,-0.38,1.06,-0.98,0.39,-0.10,11.75,97.2,-104
3525,69.969,-0.38,1.09,-1.03,0.34,-0.05,11.08,97.2,-104
3526,70.053,-0.38,1.13,-1.03,0.44,-0.15,11.10,97.2,-104
3527,70.137,-0.39,1.15,-1.08,0.39,-0.10,11.12,97.2,-104
3528,70.237,-0.38,1.07,-1.03,0.29,-0.05,11.82,97.3,-106
3529,70.338,-0.30,1.13,-1.08,0.29,-0.15,11.82,97.3,-106
3530,70.438,-0.33,1.15,-1.08,0.39,-0.10,11.82,97.3,-106
3531,70.539,-0.33,1.09,-1.03,0.34,-0.10,11.10,97.3,-106
3532,70.639,-0.35,1.09,-1.03,0.34,-0.05,11.08,97.3,-106
3533,70.740,-0.32,1.08,-0.98,0.44,-0.10,11.06,97.3,-106
3534,70.823,-0.34,1.16,-1.08,0.39,-0.15,11.75,97.5,-106
3535,70.907,-0.31,1.13,-1.03,0.44,-0.15,11.75,97.5,-106
3536,70.990,-0.37,1.17,-1.08,0.44,-0.10,11.75,97.5,-106
3537,71.074,-0.37,1.07,-0.98,0.39,-0.20,11.06,97.5,-106
3538,71.157,-0.43,1.11,-1.03,0.39,-0.15,11.06,97.5,-106
3539,71.241,-0.38,1.12,-1.03,0.39,-0.20,11.06,97.5,-106
3540,71.324,-0.42,1.09,-1.03,0.34,-0.15,11.75,97.6,-115
3541,71.408,-0.37,1.11,-1.03,0.39,-0.15,11.75,97.6,-115
3542,71.492,-0.37,1.11,-1.03,0.39,-0.10,11.75,97.6,-115
3543,71.576,-0.37,1.16,-1.08,0.39,-0.15,11.06,97.6,-115
3544,71.660,-0.43,1.13,-1.03,0.44,-0.15,11.06,97.6,-115
3545,71.744,-0.45,1.13,-1.03,0.44,-0.15,11.06,97.6,-115
3552,71.910,-0.38,1.11,-1.03,0.34,-0.24,11.64,92.4,-113
3553,72.077,-0.32,1.15,-1.03,0.44,-0.24,11.53,92.4,-113
3554,72.243,-0.37,1.13,-1.03,0.44,-0.15,11.42,92.4,-113
3555,72.410,-0.37,1.10,-1.03,0.39,-0.05,10.65,92.4,-113
3556,72.577,-0.38,1.16,-1.08,0.39,-0.20,10.55,92.4,-113
3557,72.743,-0.44,1.10,-1.03,0.34,-0.20,10.46,92.4,-113
3558,72.844,-0.42,1.16,-1.08,0.39,-0.15,11.09,92.8,-113
3559,72.944,-0.37,1.13,-1.03,0.39,-0.24,11.07,92.8,-113
3560,73.045,-0.37,1.11,-1.03,0.39,-0.15,11.05,92.8,-113
3561,73.145,-0.37,1.14,-1.03,0.44,-0.20,10.40,92.8,-113
3562,73.245,-0.39,1.18,-1.08,0.44,-0.20,10.40,92.8,-113
3563,73.346,-0.38,1.13,-1.03,0.44,-0.15,10.40,92.8,-113
3564,73.430,-0.30,1.14,-1.08,0.34,-0.10,11.07,93.3,-104
3565,73.513,-0.28,1.13,-1.03,0.44,-0.15,11.09,93.3,-104
3566,73.597,-0.28,1.09,-1.03,0.34,-0.10,11.11,93.3,-104
3567,73.681,-0.28,1.06,-0.98,0.39,-0.10,10.46,93.3,-104
3568,73.764,-0.33,1.09,-1.03,0.34,-0.05,10.46,93.3,-104
3569,73.848,-0.35,1.09,-1.03,0.34,-0.05,10.46,93.3,-104
3570,73.932,-0.31,1.20,-0.93,0.54,-0.54,11.11,93.7,-105
3571,74.015,-0.21,1.20,-0.93,0.54,-0.54,11.11,93.7,-105
3572,74.099,-0.19,1.18,-0.93,0.49,-0.54,11.11,93.7,-105
3573,74.183,-0.19,1.12,-0.93,0.49,-0.39,10.46,93.7,-105
3574,74.266,-0.30,1.18,-0.93,0.49,-0.54,10.46,93.7,-105
3575,74.350,-0.22,1.24,-0.98,0.54,-0.54,10.46,93.7,-105
3576,74.434,-0.19,1.65,-0.98,0.83,-1.03,11.11,94.0,-106
3577,74.517,-0.17,1.32,-0.93,0.74,-0.59,11.11,94.0,-106
3578,74.601,-0.20,1.25,-0.98,0.64,-0.44,11.11,94.0,-106
3579,74.685,-0.20,1.04,-0.98,0.34,0.05,10.46,94.0,-106
3580,74.768,-0.26,1.17,-0.98,0.64,0.00,10.46,94.0,-106
3581,74.852,-0.24,1.39,-0.93,0.88,-0.54,10.46,94.0,-106
3582,74.952,-0.18,1.22,-0.98,0.54,-0.49,11.09,94.4,-114
3583,75.053,-0.12,1.26,-0.98,0.59,-0.54,11.07,94.4,-114
3584,75.153,-0.08,1.19,-0.98,0.54,-0.39,11.05,94.4,-114
3585,75.253,-0.08,1.24,-1.03,0.54,-0.44,10.40,94.4,-114
3586,75.353,-0.15,1.19,-0.98,0.54,-0.39,10.40,94.4,-114
3587,75.454,-0.17,1.28,-1.03,0.59,-0.49,10.40,94.4,-114
3588,75.537,-0.10,1.22,-0.98,0.54,-0.49,11.07,94.7,-103
3589,75.621,-0.12,1.26,-1.03,0.59,-0.44,11.09,94.7,-103
3590,75.704,-0.21,1.15,-0.93,0.59,-0.34,11.11,94.7,-103
3591,75.788,-0.21,1.22,-0.98,0.54,-0.49,10.46,94.7,-103
3592,75.871,-0.18,1.26,-1.03,0.54,-0.49,10.46,94.7,-103
3593,75.955,-0.12,1.24,-0.98,0.54,-0.54,10.46,94.7,-103
3594,76.038,-0.10,1.19,-1.03,0.39,-0.44,11.11,95.0,-107
3595,76.122,0.00,1.11,-0.98,0.29,-0.44,11.11,95.0,-107
3596,76.205,0.03,1.20,-1.08,0.29,-0.44,11.11,95.0,-107
3597,76.288,0.03,1.14,-0.98,0.39,-0.44,10.46,95.0,-107
3598,76.372,-0.02,1.17,-1.03,0.39,-0.39,10.46,95.0,-107
3599,76.455,0.01,1.20,-1.03,0.44,-0.44,10.46,95.0,-107
3600,76.539,0.02,1.21,-1.03,0.39,-0.49,11.11,95.3,-103
3601,76.623,0.03,1.20,-1.03,0.44,-0.44,11.11,95.3,-103
3602,76.707,-0.03,1.21,-1.03,0.39,-0.49,11.11,95.3,-103
3603,76.791,-0.03,1.16,-0.98,0.44,-0.44,10.46,95.3,-103
3604,76.875,-0.10,1.17,-1.03,0.39,-0.39,10.46,95.3,-103
3605,76.959,-0.11,1.14,-0.98,0.44,-0.39,10.46,95.3,-103
3606,77.059,-0.15,1.17,-1.03,0.34,-0.44,11.09,95.6,-102
3607,77.159,-0.05,1.15,-0.98,0.34,-0.49,11.07,95.6,-102
3608,77.260,0.01,1.14,-0.98,0.39,-0.44,11.05,95.6,-102
3609,77.360,0.01,1.19,-1.03,0.44,-0.39,10.40,95.6,-102
3610,77.460,-0.11,1.24,-1.08,0.44,-0.44,10.40,95.6,-102
3611,77.561,-0.16,1.21,-1.08,0.34,-0.44,10.40,95.6,-102
3612,77.644,-0.09,1.22,-1.08,0.29,-0.49,11.07,95.8,-105
3613,77.728,0.02,1.17,-1.03,0.34,-0.44,11.09,95.8,-105
3614,77.812,0.02,1.21,-1.08,0.39,-0.39,11.11,95.8,-105
3615,77.895,0.02,1.21,-1.08,0.34,-0.44,10.46,95.8,-105
3616,77.979,0.05,1.13,-0.98,0.34,-0.44,10.46,95.8,-105
3617,78.063,0.10,1.16,-1.03,0.29,-0.44,10.46,95.8,-105
3618,78.146,0.11,1.17,-1.03,0.34,-0.44,11.11,96.1,-114
3619,78.230,0.18,1.17,-1.03,0.39,-0.39,11.11,96.1,-114
3620,78.314,0.16,1.26,-1.03,0.59,-0.44,11.11,96.1,-114
3621,78.397,0.16,1.20,-1.03,0.44,-0.44,10.46,96.1,-114
3622,78.481,0.10,1.21,-1.03,0.34,-0.54,10.46,96.1,-114
3623,78.565,0.15,1.27,-1.08,0.39,-0.54,10.46,96.1,-114
3624,78.648,0.23,1.19,-1.03,0.39,-0.44,11.11,96.3,-115
3625,78.732,0.27,1.17,-1.03,0.39,-0.39,11.11,96.3,-115
3626,78.815,0.18,1.15,-1.03,0.34,-0.39,11.11,96.3,-115
3627,78.899,0.18,1.23,-1.08,0.39,-0.44,10.46,96.3,-115
3628,78.983,0.15,1.19,-1.03,0.39,-0.44,10.46,96.3,-115
3629,79.066,0.16,1.19,-1.03,0.39,-0.44,10.46,96.3,-115
3630,79.167,0.15,1.25,-1.08,0.54,-0.34,11.09,96.5,-107
3631,79.267,0.23,1.21,-1.03,0.54,-0.34,11.07,96.5,-107
3632,79.367,0.25,1.11,-0.93,0.49,-0.34,11.05,96.5,-107
3633,79.468,0.25,1.20,-1.03,0.44,-0.44,10.40,96.5,-107
3634,79.568,0.17,1.20,-0.98,0.44,-0.54,10.40,96.5,-107
3635,79.668,0.16,1.20,-0.98,0.49,-0.49,10.40,96.5,-107
3636,79.752,0.14,1.32,-1.13,0.54,-0.44,11.07,96.7,-106
3637,79.835,0.21,1.16,-0.98,0.44,-0.44,11.09,96.7,-106
3638,79.919,0.17,1.14,-0.98,0.39,-0.44,11.11,96.7,-106
3639,80.003,0.17,1.13,-0.98,0.39,-0.39,10.46,96.7,-106
3640,80.086,0.09,1.19,-1.03,0.44,-0.39,10.46,96.7,-106
3641,80.170,0.06,1.16,-0.98,0.44,-0.44,10.46,96.7,-106
3642,80.254,0.17,1.24,-1.03,0.49,-0.49,11.11,96.9,-109
3643,80.337,0.19,1.25,-1.08,0.49,-0.39,11.11,96.9,-109
3644,80.421,0.18,1.22,-1.03,0.49,-0.44,11.11,96.9,-109
3645,80.505,0.18,1.18,-0.93,0.54,-0.49,10.46,96.9,-109
3646,80.588,0.11,1.16,-0.98,0.49,-0.39,10.46,96.9,-109
3647,80.672,0.16,1.23,-1.03,0.54,-0.39,10.46,96.9,-109
3648,80.756,0.14,1.18,-0.98,0.49,-0.44,11.11,97.1,-113
3649,80.839,0.11,1.24,-1.03,0.54,-0.44,11.11,97.1,-113
3650,80.923,0.04,1.16,-0.98,0.49,-0.39,11.11,97.1,-113
3651,81.007,0.04,1.18,-0.98,0.49,-0.44,10.55,97.1,-113
3652,81.090,-0.01,1.22,-1.03,0.49,-0.44,10.65,97.1,-113
3653,81.174,-0.09,1.28,-1.08,0.54,-0.44,10.75,97.1,-113
3654,81.258,0.00,1.19,-0.98,0.54,-0.39,11.53,97.3,-113
3655,81.341,0.02,1.15,-0.93,0.54,-0.39,11.64,97.3,-113
3656,81.425,0.03,1.20,-0.98,0.54,-0.44,11.75,97.3,-113
3657,81.509,0.03,1.19,-0.98,0.54,-0.39,11.08,97.3,-113
3658,81.592,-0.06,1.16,-0.98,0.49,-0.39,11.10,97.3,-113
3659,81.676,-0.11,1.16,-0.98,0.49,-0.39,11.12,97.3,-113
3660,81.776,-0.12,1.19,-1.03,0.44,-0.39,11.82,97.4,-106
3661,81.877,-0.12,1.24,-1.03,0.54,-0.44,11.82,97.4,-106
3662,81.977,-0.09,1.24,-1.03,0.54,-0.44,11.82,97.4,-106
3663,82.077,-0.09,1.19,-0.98,0.54,-0.39,11.10,97.4,-106
3664,82.178,-0.15,1.24,-1.03,0.49,-0.49,11.08,97.4,-106
3665,82.278,-0.12,1.24,-1.03,0.49,-0.49,11.06,97.4,-106
3666,82.362,-0.16,1.28,-1.08,0.54,-0.44,11.75,97.6,-108
3667,82.445,-0.13,1.22,-1.03,0.49,-0.44,11.75,97.6,-108
3668,82.529,-0.11,1.20,-0.98,0.49,-0.49,11.75,97.6,-108
3669,82.612,-0.11,1.16,-0.98,0.49,-0.39,11.06,97.6,-108
3670,82.696,-0.20,1.14,-0.98,0.44,-0.39,11.06,97.6,-108
3671,82.780,-0.15,1.20,-0.98,0.49,-0.49,11.06,97.6,-108
3672,82.863,-0.10,1.21,-1.03,0.49,-0.39,11.75,97.7,-109
3673,82.947,-0.03,1.16,-0.98,0.44,-0.44,11.75,97.7,-109
3674,83.031,-0.09,1.18,-0.98,0.49,-0.44,11.75,97.7,-109
3675,83.114,-0.09,1.21,-1.03,0.49,-0.39,11.06,97.7,-109
3676,83.198,-0.15,1.14,-0.93,0.49,-0.44,11.06,97.7,-109
3677,83.282,-0.18,1.28,-1.03,0.59,-0.49,11.06,97.7,-109
3678,83.365,-0.10,1.22,-1.03,0.49,-0.44,11.75,97.9,-113
3679,83.449,-0.08,1.22,-0.98,0.54,-0.49,11.75,97.9,-113
3680,83.533,0.00,1.28,-1.08,0.49,-0.49,11.75,97.9,-113
3681,83.616,0.00,1.16,-0.98,0.49,-0.39,11.08,97.9,-113
3682,83.700,-0.05,1.18,-0.98,0.49,-0.44,11.10,97.9,-113
3683,83.784,-0.09,1.20,-1.03,0.44,-0.44,11.12,97.9,-113
3684,83.884,-0.07,1.22,-1.03,0.49,-0.44,11.82,98.0,-107
3685,83.984,-0.01,1.28,-1.13,0.49,-0.34,11.82,98.0,-107
3686,84.084,0.02,1.18,-0.98,0.44,-0.49,11.82,98.0,-107
3687,84.185,0.02,1.18,-0.98,0.44,-0.49,11.10,98.0,-107
3688,84.285,0.05,1.12,-0.93,0.44,-0.44,11.08,98.0,-107
3689,84.385,0.00,1.22,-0.98,0.49,-0.54,11.06,98.0,-107
3690,84.469,0.05,1.18,-0.98,0.49,-0.44,11.75,98.1,-113
3691,84.553,-0.04,1.11,-0.98,0.34,-0.39,11.75,98.1,-113
3692,84.636,-0.07,1.22,-0.98,0.54,-0.49,11.75,98.1,-113
3693,84.720,-0.07,1.26,-1.08,0.49,-0.44,11.06,98.1,-113
3694,84.804,-0.12,1.22,-0.98,0.59,-0.44,11.06,98.1,-113
3695,84.887,-0.18,1.30,-1.03,0.54,-0.59,11.06,98.1,-113
3696,84.971,-0.19,1.22,-1.03,0.49,-0.44,11.75,98.2,-112
3697,85.054,-0.14,1.19,-0.98,0.54,-0.39,11.75,98.2,-112
3698,85.138,-0.22,1.22,-0.98,0.54,-0.49,11.75,98.2,-112
3699,85.221,-0.22,1.16,-0.98,0.44,-0.44,11.06,98.2,-112
3700,85.305,-0.28,1.08,-0.93,0.39,-0.39,11.06,98.2,-112
3701,85.388,-0.29,1.17,-0.98,0.54,-0.34,11.06,98.2,-112
3702,85.472,-0.36,1.25,-1.08,0.49,-0.39,11.75,98.3,-109
3703,85.556,-0.34,1.22,-1.03,0.49,-0.44,11.75,98.3,-109
3704,85.639,-0.31,1.16,-0.98,0.44,-0.44,11.75,98.3,-109
3705,85.723,-0.31,1.20,-1.03,0.44,-0.44,11.08,98.3,-109
3706,85.807,-0.27,1.26,-1.03,0.49,-0.54,11.10,98.3,-109
3707,85.891,-0.24,1.24,-1.03,0.44,-0.54,11.12,98.3,-109
3708,85.991,-0.14,1.22,-1.03,0.49,-0.44,11.82,98.4,-111
3709,86.091,-0.17,1.26,-1.03,0.59,-0.44,11.82,98.4,-111
3710,86.192,-0.25,1.20,-0.98,0.49,-0.49,11.82,98.4,-111
3786,92.799,-0.21,1.33,0.78,-0.78,-0.74,11.88,83.9,-112
3787,92.882,-0.05,1.37,0.69,-0.93,-0.74,11.88,83.9,-112
3788,92.966,0.02,1.36,0.83,-0.83,-0.69,11.88,83.9,-112
3789,93.050,0.02,1.18,0.93,-0.54,-0.49,11.88,83.9,-112
3790,93.133,-0.10,1.33,1.13,-0.59,-0.39,11.88,83.9,-112
3791,93.217,-0.09,1.39,0.88,-0.83,-0.69,11.88,83.9,-112
3810,94.418,0.98,0.77,0.10,-0.20,-0.74,10.69,83.9,-111
3811,94.618,1.01,0.97,0.20,-0.34,-0.88,10.62,83.9,-111
3812,94.818,1.02,1.44,0.05,-0.44,-1.37,10.54,83.9,-111
3813,95.018,1.02,1.58,0.00,-0.44,-1.52,10.47,83.9,-111
3814,95.218,1.02,2.09,0.05,-0.74,-1.96,10.75,75.8,-111
3815,95.418,1.11,2.04,0.00,-0.93,-1.81,10.68,75.8,-111
3828,95.915,0.95,1.22,-0.20,-0.54,-1.08,10.08,75.8,-107
3829,96.115,1.04,1.12,0.49,-0.78,-0.64,10.01,75.8,-107
3830,96.315,1.08,0.74,0.44,-0.34,-0.49,9.94,75.8,-107
3831,96.515,1.08,0.90,0.34,0.05,-0.83,9.88,75.8,-107
3832,96.715,1.06,1.55,0.00,-0.88,-1.27,9.81,75.8,-107
3833,96.915,1.05,1.85,-0.20,-1.03,-1.52,9.75,75.8,-107
3834,96.999,1.08,0.59,-0.15,-0.29,-0.49,9.76,77.2,-111
3835,97.082,1.44,0.87,-0.29,-0.44,-0.69,9.77,77.2,-111
3836,97.166,1.69,1.15,-0.24,-0.64,-0.93,9.78,77.2,-111
3837,97.250,1.69,1.27,-0.29,-0.69,-1.03,9.78,77.2,-111
3838,97.334,1.73,1.11,-0.34,-0.24,-1.03,9.79,77.2,-111
3839,97.418,1.87,1.00,-0.15,-0.15,-0.98,9.80,77.2,-111
3840,97.518,1.97,1.26,-0.78,-0.34,-0.93,9.79,78.6,-108
3841,97.619,2.15,1.03,-0.24,-0.20,-0.98,9.78,78.6,-108
3842,97.720,2.12,1.15,-0.24,-0.05,-1.13,9.77,78.6,-108
3843,97.820,2.12,1.14,-0.49,-0.05,-1.03,9.77,78.6,-108
3844,97.921,1.95,1.43,-0.78,0.20,-1.18,9.76,78.6,-108
3845,98.022,1.86,1.43,-1.08,0.15,-0.93,9.75,78.6,-108
3852,98.189,1.45,1.26,-0.24,-0.39,-1.18,9.70,75.5,-111
3853,98.356,1.35,1.03,0.00,-0.44,-0.93,9.66,75.5,-111
3854,98.523,1.22,0.92,0.44,-0.78,-0.20,9.61,75.5,-111
3855,98.689,1.22,1.07,0.54,-0.88,0.29,9.57,75.5,-111
3856,98.856,1.04,1.06,0.59,-0.83,0.29,9.52,75.5,-111
3857,99.023,0.96,1.28,0.59,-1.13,0.15,9.48,75.5,-111
3864,99.207,0.92,1.67,0.00,-1.42,-0.88,9.43,72.8,-116
3865,99.390,0.91,1.48,-0.39,-1.27,-0.64,9.38,72.8,-116
3866,99.574,0.88,1.21,-0.24,-1.08,-0.49,9.33,72.8,-116
3867,99.757,0.88,1.01,-0.20,-0.83,-0.54,9.28,72.8,-116
3868,99.941,0.82,0.83,-0.24,-0.59,-0.54,9.23,72.8,-116
3869,100.124,0.71,0.88,-0.05,-0.39,-0.78,9.18,72.8,-116
3870,100.208,0.62,1.02,-0.44,-0.39,-0.83,9.18,74.4,-103
3871,100.292,0.80,0.75,0.34,-0.54,-0.39,9.18,74.4,-103
3872,100.375,0.97,0.65,-0.64,-0.05,-0.10,9.18,74.4,-103
3873,100.459,0.97,0.68,-0.24,-0.24,-0.59,9.18,74.4,-103
3874,100.543,0.96,1.37,0.24,-0.44,-1.27,9.18,74.4,-103
3875,100.626,0.98,1.80,-0.05,-0.69,-1.67,9.18,74.4,-103
3876,100.710,0.92,0.91,0.34,-0.10,-0.83,9.19,75.9,-106
3877,100.793,0.88,1.15,0.10,-0.39,-1.08,9.20,75.9,-106
3878,100.877,0.74,1.71,0.10,-0.78,-1.52,9.21,75.9,-106
3879,100.960,0.74,1.86,-0.49,-0.78,-1.62,9.21,75.9,-106
3880,101.044,0.53,1.68,-0.59,-0.93,-1.27,9.22,75.9,-106
3881,101.127,0.38,1.61,-0.93,-0.98,-0.88,9.23,75.9,-106
3882,101.211,0.38,2.39,0.05,-1.96,-1.37,9.23,77.3,-102
3883,101.295,0.41,1.91,0.15,-1.37,-1.32,9.23,77.3,-102
3884,101.379,0.40,1.34,0.24,-0.93,-0.93,9.23,77.3,-102
3885,101.462,0.40,0.71,0.20,-0.34,-0.59,9.23,77.3,-102
3886,101.546,0.34,0.56,0.05,0.15,-0.54,9.23,77.3,-102
3887,101.630,0.30,0.67,-0.20,0.05,-0.64,9.23,77.3,-102
3888,101.730,0.22,1.02,0.78,-0.29,-0.59,9.22,78.6,-95
3889,101.831,0.26,1.49,1.03,-0.98,-0.44,9.21,78.6,-95
3890,101.931,0.27,2.33,1.37,-1.67,-0.88,9.21,78.6,-95
3891,102.031,0.27,2.24,0.93,-1.76,-1.03,9.20,78.6,-95
3892,102.131,0.16,1.91,0.34,-1.47,-1.18,9.19,78.6,-95
3893,102.232,0.11,1.70,0.34,-1.27,-1.08,9.18,78.6,-95
3894,102.315,0.13,1.01,0.29,0.49,-0.83,9.18,79.9,-102
3895,102.399,0.24,0.87,0.29,0.44,-0.69,9.18,79.9,-102
3896,102.483,0.36,1.09,0.83,0.54,-0.44,9.18,79.9,-102
3897,102.567,0.36,0.79,0.20,0.74,-0.20,9.18,79.9,-102
3898,102.650,0.37,0.56,0.44,0.00,-0.34,9.18,79.9,-102
3899,102.734,0.35,0.98,0.69,-0.54,-0.44,9.18,79.9,-102
3900,102.818,0.35,2.52,0.49,-1.37,-2.06,9.19,81.0,-99
3901,102.901,0.51,1.83,0.20,-0.83,-1.62,9.20,81.0,-99
3902,102.985,0.63,1.14,0.29,-0.24,-1.08,9.21,81.0,-99
3903,103.068,0.63,0.77,0.15,0.20,-0.74,9.21,81.0,-99
3904,103.152,0.59,0.81,0.05,0.49,-0.64,9.22,81.0,-99
3905,103.236,0.64,1.02,-0.29,0.64,-0.74,9.23,81.0,-99
3906,103.320,0.62,0.96,-0.69,-0.54,-0.39,9.23,82.1,-97
3907,103.404,0.78,1.63,0.10,-0.78,-1.42,9.23,82.1,-97
3908,103.488,0.95,1.77,0.00,-1.27,-1.22,9.23,82.1,-97
3909,103.571,0.95,1.81,-0.05,-1.13,-1.42,9.23,82.1,-97
3910,103.655,0.99,1.49,-0.10,-0.24,-1.47,9.23,82.1,-97
3911,103.739,1.05,1.13,-0.05,0.00,-1.13,9.23,82.1,-97
3912,103.839,1.14,1.00,-0.44,-0.15,-0.88,9.22,83.2,-88
3913,103.939,1.15,0.93,-0.24,-0.15,-0.88,9.21,83.2,-88
3914,104.039,1.26,1.04,-0.44,-0.15,-0.93,9.21,83.2,-88
3915,104.139,1.26,0.97,-0.49,-0.10,-0.83,9.20,83.2,-88
3916,104.239,1.19,0.64,-0.24,-0.05,-0.59,9.19,83.2,-88
3917,104.339,1.16,0.54,-0.05,-0.05,-0.54,9.18,83.2,-88
3918,104.422,1.25,1.56,-0.78,-0.74,-1.13,9.18,84.2,-91
3919,104.506,1.24,0.86,-0.20,-0.29,-0.78,9.18,84.2,-91
3920,104.590,1.28,0.74,0.20,0.20,-0.69,9.18,84.2,-91
3921,104.673,1.28,1.11,0.34,0.49,-0.93,9.18,84.2,-91
3922,104.757,1.23,1.09,0.10,0.10,-1.08,9.18,84.2,-91
3923,104.841,1.35,1.00,-0.54,-0.29,-0.78,9.18,84.2,-91
3924,104.925,1.36,1.26,-0.05,0.44,-1.18,9.19,85.1,-92
3925,105.008,1.43,1.39,-0.20,0.00,-1.37,9.20,85.1,-92
3926,105.092,1.40,1.84,-0.39,-0.69,-1.67,9.21,85.1,-92
3927,105.176,1.40,2.19,-0.59,-0.88,-1.91,7.27,85.1,-92
3928,105.259,1.29,1.88,-0.78,-0.69,-1.57,7.27,85.1,-92
3929,105.343,1.29,1.54,-0.78,-0.15,-1.32,7.27,85.1,-92
3930,105.427,1.34,1.30,-0.20,-0.15,-1.27,7.76,86.0,-83
3931,105.510,1.38,1.19,-0.15,-0.10,-1.18,7.76,86.0,-83
3932,105.594,1.25,1.19,-0.34,0.20,-1.13,7.76,86.0,-83
3933,105.678,1.25,1.32,-0.44,0.24,-1.22,8.53,86.0,-83
3934,105.761,1.10,1.63,-0.74,-0.29,-1.42,8.61,86.0,-83
3935,105.845,1.06,1.74,-0.78,-0.49,-1.47,8.71,86.0,-83
3936,105.929,0.98,1.41,0.69,-0.59,-1.08,9.35,86.8,-83
3937,106.012,1.08,1.16,0.39,-0.49,-0.98,8.89,86.8,-83
3938,106.096,1.22,1.02,0.49,-0.15,-0.88,8.99,86.8,-83
3939,106.180,1.22,1.01,0.49,-0.10,-0.88,9.35,86.8,-83
3940,106.263,1.24,0.98,0.39,-0.15,-0.88,9.46,86.8,-83
3941,106.347,1.32,0.97,0.39,-0.29,-0.83,9.57,86.8,-83
3942,106.447,1.36,1.05,0.15,-0.98,-0.34,10.27,87.6,-82
3943,106.548,1.46,0.94,0.49,-0.64,-0.49,10.37,87.6,-82
3944,106.648,1.39,0.98,0.54,-0.24,-0.78,10.48,87.6,-82
3945,106.748,1.39,0.92,0.44,-0.20,-0.78,9.85,87.6,-82
3946,106.848,1.35,0.74,0.24,-0.15,-0.69,9.83,87.6,-82
3947,106.949,1.39,0.75,0.29,-0.05,-0.69,9.81,87.6,-82
3948,107.032,1.44,1.67,0.29,-0.64,-1.52,10.43,88.3,-82
3949,107.116,1.45,1.05,0.20,-0.54,-0.88,10.43,88.3,-82
3950,107.200,1.41,0.88,0.00,-0.78,-0.39,10.43,88.3,-82
3951,107.283,1.41,0.94,-0.20,-0.88,-0.24,9.83,88.3,-82
3952,107.367,1.23,1.22,0.00,-1.18,-0.34,9.85,88.3,-82
3953,107.451,1.13,1.39,0.00,-1.32,-0.44,9.87,88.3,-82
3954,107.534,1.15,0.57,-0.54,-0.10,0.15,10.50,89.0,-87
3955,107.618,1.21,0.59,-0.59,0.00,-0.05,10.52,89.0,-87
3956,107.701,1.20,1.23,-0.59,-0.10,-1.08,10.54,89.0,-87
3957,107.785,1.20,1.24,-0.69,-0.54,-0.88,10.00,89.0,-87
3958,107.869,1.21,0.78,-0.44,-0.05,-0.64,10.09,89.0,-87
3959,107.952,1.21,1.21,-0.64,-0.05,-1.03,10.18,89.0,-87
3960,108.036,1.22,1.25,-0.88,0.00,-0.88,10.91,89.6,-95
3961,108.120,1.25,1.06,-0.59,-0.10,-0.88,11.01,89.6,-95
3962,108.203,1.21,0.92,-0.34,-0.34,-0.78,11.11,89.6,-95
3963,108.287,1.21,0.85,-0.24,-0.34,-0.74,10.57,89.6,-95
3964,108.371,1.17,0.46,-0.34,-0.10,-0.29,10.69,89.6,-95
3965,108.454,1.18,0.66,-0.64,-0.05,-0.15,10.81,89.6,-95
3966,108.555,1.26,1.67,-0.39,-1.18,-1.13,11.59,90.2,-86
3967,108.655,1.54,2.37,-0.74,-1.86,-1.27,11.71,90.2,-86
3968,108.755,1.66,2.66,-0.83,-2.16,-1.32,11.82,90.2,-86
3969,108.855,1.66,2.53,-0.59,-2.01,-1.42,11.10,90.2,-86
3970,108.956,1.68,1.84,-0.54,-1.42,-1.03,11.08,90.2,-86
3971,109.056,1.66,1.19,-0.64,-0.74,-0.69,11.06,90.2,-86
3972,109.140,1.55,1.09,0.34,0.05,-1.03,11.75,90.8,-82
3973,109.223,1.74,1.18,0.34,0.00,-1.13,11.75,90.8,-82
3974,109.307,1.85,1.10,0.15,-0.15,-1.08,11.75,90.8,-82
3975,109.391,1.85,1.13,0.00,-0.34,-1.08,11.06,90.8,-82
3976,109.474,1.90,1.41,-0.15,-0.59,-1.27,11.06,90.8,-82
3977,109.558,1.92,1.45,-0.29,-0.98,-1.03,11.06,90.8,-82
3978,109.642,1.88,1.50,-0.10,-0.93,-1.18,11.75,91.3,-82
3979,109.725,2.04,0.97,-0.05,-0.64,-0.74,11.75,91.3,-82
3980,109.809,2.17,0.61,0.24,-0.44,-0.34,11.75,91.3,-82
3981,109.892,2.17,0.46,0.20,-0.24,-0.34,11.06,91.3,-82
3982,109.975,2.20,0.78,0.15,-0.49,-0.59,11.06,91.3,-82
3983,110.059,2.28,0.97,0.24,-0.44,-0.83,11.06,91.3,-82
3984,110.143,2.25,0.64,-0.24,0.10,-0.59,11.75,91.8,-82
3985,110.227,2.15,0.62,-0.20,0.05,-0.59,11.75,91.8,-82
3986,110.310,2.11,0.86,-0.44,0.00,-0.74,11.75,91.8,-82
3987,110.394,2.11,1.00,-0.49,-0.24,-0.83,11.08,91.8,-82
3988,110.478,2.06,1.39,-0.39,-0.64,-1.18,11.10,91.8,-82
3989,110.562,2.10,2.00,-0.64,-0.98,-1.62,11.12,91.8,-82
3990,110.662,2.17,2.75,-0.59,-1.47,-2.25,11.82,92.3,-77
3991,110.762,2.22,1.96,-0.59,-0.74,-1.72,11.82,92.3,-77
3992,110.863,2.23,1.00,-0.15,-0.15,-0.98,11.82,92.3,-77
3993,110.963,2.23,0.42,-0.24,0.05,-0.34,11.10,92.3,-77
3994,111.063,2.22,0.29,-0.15,0.05,-0.24,11.08,92.3,-77
3995,111.164,2.20,0.49,-0.39,0.00,-0.29,11.06,92.3,-77
3996,111.247,2.17,0.64,-0.10,0.00,-0.64,11.75,92.8,-72
3997,111.331,2.10,0.95,-0.20,-0.05,-0.93,11.75,92.8,-72
3998,111.414,2.10,1.32,-0.59,-0.15,-1.18,11.75,92.8,-72
3999,111.498,1.91,1.21,-0.44,-0.34,-1.08,11.06,92.8,-72
4000,111.581,1.83,1.27,-0.24,-0.54,-1.13,11.06,92.8,-72
4001,111.665,1.82,1.08,-0.10,-0.54,-0.93,11.06,92.8,-72
4002,111.748,1.78,1.13,0.00,-0.05,-1.13,11.75,93.2,-79
4003,111.832,1.77,1.19,0.05,-0.15,-1.18,11.75,93.2,-79
4004,111.916,1.64,1.19,0.05,-0.15,-1.18,11.75,93.2,-79
4005,111.999,1.64,1.19,0.00,-0.20,-1.18,11.06,93.2,-79
4006,112.083,1.54,1.11,0.05,-0.24,-1.08,11.06,93.2,-79
4007,112.166,1.51,1.08,0.00,-0.34,-1.03,11.06,93.2,-79
4008,112.250,1.47,1.11,0.15,-0.24,-1.08,11.75,93.6,-77
4009,112.334,1.45,1.04,0.15,-0.10,-1.03,11.75,93.6,-77
4010,112.417,1.42,1.08,0.10,0.05,-1.08,11.75,93.6,-77
4011,112.501,1.42,1.14,0.15,0.10,-1.13,11.08,93.6,-77
4012,112.585,1.30,1.14,0.15,0.05,-1.13,11.10,93.6,-77
4013,112.668,1.27,1.15,0.20,0.10,-1.13,11.13,93.6,-77
4014,112.752,1.38,1.49,0.05,-1.47,-0.24,11.84,94.0,-76
4015,112.836,1.36,1.28,0.10,-1.27,-0.10,11.86,94.0,-76
4016,112.919,1.32,0.93,0.29,-0.88,-0.05,11.89,94.0,-76
4017,113.003,1.32,0.98,0.20,-0.93,-0.24,11.19,94.0,-76
4018,113.087,1.33,0.88,0.29,-0.74,-0.39,11.19,94.0,-76
4019,113.170,1.31,0.87,0.24,-0.64,-0.54,11.19,94.0,-76
4020,113.271,1.30,1.21,-0.05,-1.08,-0.54,11.86,94.3,-79
4021,113.371,1.31,1.19,-0.10,-1.03,-0.59,11.84,94.3,-79
4022,113.471,1.31,0.99,0.00,-0.88,-0.44,11.82,94.3,-79
4023,113.572,1.31,1.18,-0.10,-0.88,-0.78,11.10,94.3,-79
4024,113.672,1.27,1.04,-0.05,-0.69,-0.78,11.08,94.3,-79
4025,113.772,1.32,1.08,-0.05,-0.69,-0.83,11.06,94.3,-79
4026,113.856,1.45,1.20,-0.29,-0.54,-1.03,11.75,94.7,-72
4027,113.939,1.60,1.26,-0.29,-0.49,-1.13,11.75,94.7,-72
4028,114.023,1.67,1.32,-0.24,-0.54,-1.18,11.75,94.7,-72
4029,114.107,1.67,1.33,-0.29,-0.44,-1.22,11.06,94.7,-72
4030,114.190,1.66,1.39,-0.29,-0.59,-1.22,11.06,94.7,-72
4031,114.274,1.70,1.30,-0.29,-0.59,-1.13,11.06,94.7,-72
4032,114.358,1.74,1.26,-0.29,0.00,-1.22,11.75,95.0,-73
4033,114.441,1.43,1.29,-0.20,0.00,-1.27,11.75,95.0,-73
4034,114.525,1.28,1.07,-0.29,-0.10,-1.03,11.75,95.0,-73
4035,114.609,1.28,1.23,-0.29,-0.20,-1.18,11.06,95.0,-73
4036,114.692,1.04,1.09,-0.24,-0.24,-1.03,11.06,95.0,-73
4037,114.776,0.95,1.07,-0.20,-0.20,-1.03,11.06,95.0,-73
4038,114.860,0.95,1.22,0.00,0.00,-1.22,11.75,95.3,-71
4039,114.943,1.04,1.43,0.00,0.15,-1.42,11.75,95.3,-71
4040,115.027,1.04,1.44,-0.05,0.24,-1.42,11.75,95.3,-71
4041,115.111,1.03,1.48,0.00,0.15,-1.47,11.08,95.3,-71
4042,115.194,0.97,1.20,-0.20,0.10,-1.18,11.10,95.3,-71
4043,115.278,0.99,1.43,-0.10,0.10,-1.42,11.12,95.3,-71
4044,115.378,0.94,1.35,-0.24,0.15,-1.32,11.82,95.5,-75
4045,115.478,1.02,1.40,-0.20,0.20,-1.37,11.82,95.5,-75
4046,115.579,0.98,1.51,-0.20,0.29,-1.47,11.82,95.5,-75
4047,115.679,0.98,1.48,-0.10,0.39,-1.42,11.10,95.5,-75
4048,115.779,0.83,1.24,-0.05,0.39,-1.18,11.08,95.5,-75
4049,115.880,0.91,1.17,0.05,0.29,-1.13,11.06,95.5,-75
4050,115.963,0.92,1.18,-0.05,-0.05,-1.18,11.75,95.8,-75
4051,116.047,0.88,1.18,-0.05,-0.05,-1.18,11.75,95.8,-75
4052,116.131,0.86,1.28,-0.10,0.00,-1.27,11.75,95.8,-75
4053,116.214,0.86,1.18,-0.05,0.05,-1.18,11.06,95.8,-75
4054,116.298,0.79,1.23,-0.10,-0.05,-1.22,11.06,95.8,-75
4055,116.382,0.80,1.43,-0.15,0.00,-1.42,11.06,95.8,-75
4056,116.465,0.79,1.29,-0.20,0.00,-1.27,11.75,96.0,-75
4057,116.549,0.89,1.14,-0.15,0.00,-1.13,11.75,96.0,-75
4058,116.632,0.84,1.14,-0.15,0.00,-1.13,11.75,96.0,-75
4059,116.716,0.84,1.10,-0.20,0.05,-1.08,11.06,96.0,-75
4060,116.800,0.80,1.13,-0.34,-0.05,-1.08,11.06,96.0,-75
4061,116.883,0.66,1.10,-0.39,0.00,-1.03,11.06,96.0,-75
4062,116.967,0.73,1.19,-0.15,-0.34,-1.13,11.75,96.3,-73
4063,117.051,0.75,1.10,-0.24,-0.29,-1.03,11.75,96.3,-73
4064,117.134,0.72,1.07,-0.10,-0.29,-1.03,11.75,96.3,-73
4065,117.218,0.72,1.10,-0.20,-0.34,-1.03,11.08,96.3,-73
4066,117.302,0.68,1.05,-0.29,-0.24,-0.98,11.10,96.3,-73
4067,117.385,0.70,1.07,-0.15,-0.24,-1.03,11.12,96.3,-73
4068,117.486,0.71,1.30,-0.69,-0.24,-1.08,11.82,96.5,-74
4069,117.586,0.74,0.96,-0.44,-0.20,-0.83,11.82,96.5,-74
4070,117.686,0.73,1.16,-0.49,-0.20,-1.03,11.82,96.5,-74
4071,117.786,0.73,1.11,-0.64,-0.20,-0.88,11.10,96.5,-74
4072,117.887,0.63,1.18,-0.64,-0.15,-0.98,11.08,96.5,-74
4073,117.987,0.63,1.21,-0.54,0.00,-1.08,11.06,96.5,-74
4074,118.071,0.66,1.21,-0.54,-0.05,-1.08,11.75,96.7,-83
4075,118.154,0.77,1.25,-0.54,-0.05,-1.13,11.75,96.7,-83
4076,118.238,0.81,1.23,-0.49,-0.10,-1.13,11.75,96.7,-83
4077,118.322,0.81,1.21,-0.44,-0.05,-1.13,11.06,96.7,-83
4078,118.405,0.78,1.21,-0.44,-0.10,-1.13,11.06,96.7,-83
4079,118.489,0.75,1.18,-0.54,-0.20,-1.03,11.06,96.7,-83
4080,118.572,0.72,1.18,-0.59,-0.29,-0.98,11.75,96.9,-95
4081,118.656,0.68,1.27,-0.59,-0.05,-1.13,11.75,96.9,-95
4082,118.740,0.53,1.36,-0.59,-0.05,-1.22,11.75,96.9,-95
4083,118.823,0.53,1.43,-0.78,-0.39,-1.13,11.06,96.9,-95
4084,118.907,0.39,1.37,-0.74,-0.24,-1.13,11.06,96.9,-95
4085,118.991,0.38,1.23,-0.59,-0.05,-1.08,11.06,96.9,-95
4086,119.074,0.43,1.50,-0.59,-0.15,-1.37,11.75,97.1,-88
4087,119.158,0.48,1.24,-0.54,-0.44,-1.03,11.75,97.1,-88
4088,119.242,-0.99,1.65,-0.39,-1.37,-0.83,11.75,97.1,-88
4089,119.325,-0.99,0.94,-0.44,0.00,-0.83,11.08,97.1,-88
4090,119.409,-1.89,0.98,-0.59,-0.05,-0.78,11.10,97.1,-88
4091,119.493,-2.12,1.02,-0.49,-0.15,-0.88,11.12,97.1,-88
4092,119.576,-1.91,1.29,-0.39,-0.05,-1.22,11.84,97.2,-71
4093,119.660,-1.20,1.31,-0.44,-0.10,-1.22,11.87,97.2,-71
4094,119.744,-0.73,1.26,-0.29,0.00,-1.22,11.89,97.2,-71
4095,119.827,-0.73,1.26,-0.29,0.00,-1.22,11.19,97.2,-71
4096,119.911,-0.42,1.31,-0.29,0.00,-1.27,11.19,97.2,-71
4097,119.995,-0.14,1.31,-0.29,-0.05,-1.27,11.19,97.2,-71
4098,120.095,0.13,1.31,-0.29,-0.10,-1.27,11.86,97.4,-73
4099,120.195,0.34,1.32,-0.34,-0.05,-1.27,11.84,97.4,-73
4100,120.295,0.54,1.19,-0.15,0.05,-1.18,11.82,97.4,-73
4101,120.396,0.54,1.06,-0.15,0.20,-1.03,11.10,97.4,-73
4102,120.496,0.64,1.31,-0.24,0.20,-1.27,11.08,97.4,-73
4103,120.596,0.60,1.72,-0.10,0.15,-1.72,11.06,97.4,-73
4104,120.680,0.66,1.78,-0.24,0.05,-1.76,11.75,97.6,-70
4105,120.763,0.84,1.43,-0.10,0.05,-1.42,11.75,97.6,-70
4106,120.847,0.90,1.23,-0.05,0.10,-1.22,11.75,97.6,-70
4107,120.931,0.90,1.24,-0.10,0.15,-1.22,11.06,97.6,-70
4108,121.014,0.88,1.24,0.00,0.20,-1.22,11.06,97.6,-70
4109,121.098,0.82,1.35,0.00,0.24,-1.32,11.06,97.6,-70
4110,121.182,0.83,1.33,0.00,-0.10,-1.32,11.75,97.7,-71
4111,121.265,0.89,1.19,-0.05,-0.20,-1.18,11.75,97.7,-71
4112,121.349,0.95,1.13,0.00,0.00,-1.13,11.75,97.7,-71
4113,121.433,0.95,1.13,0.00,0.10,-1.13,11.06,97.7,-71
4114,121.516,0.98,1.28,-0.05,0.10,-1.27,11.06,97.7,-71
4115,121.600,0.99,1.34,-0.15,0.15,-1.32,11.06,97.7,-71
4116,121.683,1.02,1.48,-0.15,-0.05,-1.47,11.75,97.8,-73
4117,121.767,1.00,1.44,-0.10,-0.20,-1.42,11.75,97.8,-73
4118,121.851,1.01,1.34,-0.15,-0.15,-1.32,11.75,97.8,-73
4119,121.934,1.01,1.24,-0.10,-0.20,-1.22,11.08,97.8,-73
4120,122.018,0.95,1.13,0.00,-0.10,-1.13,11.10,97.8,-73
4121,122.101,0.96,1.04,-0.05,-0.15,-1.03,11.12,97.8,-73
4122,122.202,0.96,1.16,-0.10,-0.24,-1.13,11.82,98.0,-74
4123,122.302,1.03,1.12,-0.05,-0.29,-1.08,11.82,98.0,-74
4124,122.402,0.99,1.12,-0.10,-0.29,-1.08,11.82,98.0,-74
4125,122.503,0.99,0.96,-0.15,-0.34,-0.88,11.10,98.0,-74
4126,122.603,0.96,1.03,-0.15,-0.29,-0.98,11.08,98.0,-74
4127,122.703,0.97,1.01,-0.05,-0.24,-0.98,11.06,98.0,-74
4128,122.787,0.96,1.26,-0.34,-0.44,-1.13,11.75,98.1,-73
4129,122.870,0.95,1.45,-0.24,-0.10,-1.42,11.75,98.1,-73
4130,122.954,1.00,1.26,-0.24,-0.20,-1.22,11.75,98.1,-73
4131,123.038,1.00,1.19,-0.15,-0.49,-1.08,11.06,98.1,-73
4132,123.121,0.95,0.97,-0.10,-0.49,-0.83,11.06,98.1,-73
4133,123.205,0.96,0.86,-0.10,-0.44,-0.74,11.06,98.1,-73
4134,123.289,1.04,1.12,-0.05,-0.54,-0.98,11.75,98.2,-71
4135,123.372,1.15,1.33,0.10,-0.83,-1.03,11.75,98.2,-71
4136,123.456,1.20,1.46,0.05,-0.98,-1.08,11.75,98.2,-71
4137,123.539,1.20,1.22,0.05,-0.78,-0.93,11.06,98.2,-71
4138,123.623,1.19,0.96,0.15,-0.54,-0.78,11.06,98.2,-71
4139,123.707,1.25,1.04,0.10,-0.54,-0.88,11.06,98.2,-71
4140,123.790,1.36,1.35,-0.15,-0.64,-1.18,11.75,98.3,-75
4141,123.874,1.39,1.25,-0.15,-0.69,-1.03,11.75,98.3,-75
4142,123.958,1.32,0.76,0.15,-0.69,-0.29,11.75,98.3,-75
4143,124.041,1.32,0.84,0.05,-0.05,-0.83,11.08,98.3,-75
4144,124.125,1.20,1.13,0.00,-0.34,-1.08,11.10,98.3,-75
4145,124.208,1.18,1.23,-0.10,-0.49,-1.13,11.12,98.3,-75
4146,124.309,1.15,1.53,-0.15,0.10,-1.52,11.82,98.4,-77
4147,124.409,1.26,1.44,-0.24,0.05,-1.42,11.82,98.4,-77
4148,124.509,1.13,1.42,-0.49,0.15,-1.32,11.82,98.4,-77
4149,124.610,1.13,1.31,-0.29,0.05,-1.27,11.10,98.4,-77
4150,124.710,1.03,1.20,-0.24,-0.10,-1.18,11.08,98.4,-77
4151,124.810,1.05,1.36,-0.10,0.29,-1.32,11.06,98.4,-77
4152,124.894,1.02,1.32,-0.15,0.59,-1.18,11.75,98.5,-79
4153,124.977,1.01,1.26,-0.20,0.54,-1.13,11.75,98.5,-79
4154,125.061,0.98,1.32,-0.24,0.54,-1.18,11.75,98.5,-79
4155,125.145,0.98,1.48,-0.15,0.39,-1.42,11.06,98.5,-79
4156,125.228,0.89,1.29,0.05,0.39,-1.22,11.06,98.5,-79
4157,125.312,0.89,1.18,0.05,0.83,-0.83,11.06,98.5,-79
4158,125.396,1.00,1.36,-0.24,0.54,-1.22,11.75,98.6,-75
4159,125.479,1.04,1.35,-0.15,0.54,-1.22,11.75,98.6,-75
4160,125.563,0.94,1.35,-0.20,0.54,-1.22,11.75,98.6,-75
4161,125.646,0.94,1.38,-0.34,0.54,-1.22,11.06,98.6,-75
4162,125.730,0.93,1.46,-0.39,0.59,-1.27,11.06,98.6,-75
4163,125.814,0.87,1.38,-0.39,0.49,-1.22,11.06,98.6,-75
4164,125.897,0.90,1.44,-0.15,0.74,-1.22,11.75,98.7,-65
4165,125.981,1.03,1.52,-0.29,0.78,-1.27,11.75,98.7,-65
4166,126.065,1.08,1.40,-0.20,0.74,-1.18,11.75,98.7,-65
4167,126.148,1.08,1.38,-0.24,0.59,-1.22,11.08,98.7,-65
4168,126.232,0.99,1.33,-0.15,0.49,-1.22,11.10,98.7,-65
4169,126.315,0.90,1.28,-0.24,0.44,-1.18,11.12,98.7,-65
4170,126.416,0.91,1.41,-0.34,0.34,-1.32,11.82,98.7,-66
4171,126.516,0.85,1.23,-0.34,0.34,-1.13,11.82,98.7,-66
4172,126.616,0.85,1.24,-0.44,0.29,-1.13,11.82,98.7,-66
4173,126.716,0.85,1.29,-0.44,0.29,-1.18,11.10,98.7,-66
4174,126.817,0.83,1.41,-0.59,0.39,-1.22,11.08,98.7,-66
4175,126.917,0.86,1.38,-0.54,0.34,-1.22,11.06,98.7,-66
4176,127.001,0.83,1.29,-0.05,0.39,-1.22,11.75,98.8,-63
4177,127.084,0.86,1.31,-0.10,0.44,-1.22,11.75,98.8,-63
4178,127.168,0.77,1.35,-0.10,0.44,-1.27,11.75,98.8,-63
4179,127.251,0.77,1.45,-0.24,0.54,-1.32,11.06,98.8,-63
4180,127.335,0.65,1.33,-0.20,0.49,-1.22,11.06,98.8,-63
4181,127.419,0.73,1.30,-0.05,0.44,-1.22,11.06,98.8,-63
4182,127.502,0.75,1.35,-0.29,0.59,-1.18,11.75,98.9,-60
4183,127.586,0.80,1.47,-0.24,0.59,-1.32,11.75,98.9,-60
4184,127.670,0.78,1.41,-0.20,0.44,-1.32,11.75,98.9,-60
4185,127.753,0.78,2.66,-0.44,0.34,-2.60,11.06,98.9,-60
4186,127.837,0.71,1.40,-0.20,0.54,-1.27,11.06,98.9,-60
4187,127.920,0.66,1.74,0.00,0.64,-1.62,11.06,98.9,-60
4188,128.004,0.72,1.47,-0.05,0.64,-1.32,11.75,99.0,-60
4189,128.088,0.75,1.36,-0.10,0.59,-1.22,11.75,99.0,-60
4190,128.171,0.73,1.28,-0.15,0.59,-1.13,11.75,99.0,-60
4191,128.255,0.73,1.34,-0.24,0.49,-1.22,11.06,99.0,-60
4192,128.339,0.60,1.38,-0.20,0.49,-1.27,11.06,99.0,-60
4193,128.422,0.60,1.26,-0.10,0.44,-1.18,11.06,99.0,-60
4194,128.506,0.62,1.18,-0.39,0.29,-1.08,11.75,99.0,-63
4195,128.589,0.63,1.20,-0.39,0.34,-1.08,11.75,99.0,-63
4196,128.673,0.55,1.32,-0.24,0.44,-1.22,11.75,99.0,-63
4197,128.757,0.55,1.35,-0.29,0.49,-1.22,11.08,99.0,-63
4198,128.840,0.47,1.35,-0.29,0.49,-1.22,11.10,99.0,-63
4199,128.924,0.50,1.33,-0.39,0.49,-1.18,11.13,99.0,-63
4200,129.024,0.63,1.20,-0.34,0.39,-1.08,11.82,99.1,-63
4201,129.124,0.64,1.13,-0.20,0.29,-1.08,11.82,99.1,-63
4202,129.225,0.70,1.19,-0.24,0.29,-1.13,11.82,99.1,-63
4203,129.325,0.70,1.46,-0.20,0.24,-1.42,11.10,99.1,-63
4204,129.425,0.62,1.46,-0.24,0.44,-1.37,11.08,99.1,-63
4205,129.526,0.61,1.53,-0.24,0.64,-1.37,11.06,99.1,-63
4206,129.609,0.69,1.13,-0.10,0.64,-0.93,11.75,99.1,-57
4207,129.693,0.73,1.08,-0.05,0.54,-0.93,11.75,99.1,-57
4208,129.776,0.74,1.34,-0.05,0.64,-1.18,11.75,99.1,-57
4209,129.860,0.74,1.59,0.00,0.88,-1.32,11.06,99.1,-57
4210,129.944,0.72,1.39,0.00,0.74,-1.18,11.06,99.1,-57
4211,130.027,0.75,1.45,-0.05,0.59,-1.32,11.06,99.1,-57
4212,130.111,0.80,1.36,-0.24,0.64,-1.18,11.75,99.2,-57
4213,130.195,0.81,1.42,-0.20,0.69,-1.22,11.75,99.2,-57
4214,130.278,0.86,1.39,-0.29,0.59,-1.22,11.75,99.2,-57
4215,130.362,0.86,1.21,-0.29,0.83,-0.83,11.06,99.2,-57
4216,130.445,0.81,1.28,-0.24,0.44,-1.18,11.06,99.2,-57
4217,130.529,0.81,1.13,-0.15,0.44,-1.03,11.06,99.2,-57
4218,130.613,0.90,1.26,-0.39,0.39,-1.13,11.75,99.2,-58
4219,130.696,0.93,1.23,-0.29,0.39,-1.13,11.75,99.2,-58
4220,130.780,0.96,1.28,-0.24,0.44,-1.18,11.75,99.2,-58
4221,130.864,0.96,1.20,-0.20,0.49,-1.08,11.08,99.2,-58
4222,130.947,0.88,1.08,-0.24,0.49,-0.93,11.10,99.2,-58
4223,131.031,0.87,1.15,-0.24,0.54,-0.98,11.13,99.2,-58
4224,131.131,0.97,1.24,-0.29,0.44,-1.13,11.82,99.3,-57
4225,131.231,0.97,1.13,-0.24,0.24,-1.08,11.82,99.3,-57
4226,131.332,0.97,1.10,-0.24,0.29,-1.03,11.82,99.3,-57
4227,131.432,0.97,1.16,-0.24,0.34,-1.08,11.10,99.3,-57
4228,131.532,0.97,1.16,-0.15,0.39,-1.08,11.08,99.3,-57
4229,131.632,0.91,1.22,-0.29,0.49,-1.08,11.06,99.3,-57
4230,131.716,0.98,1.33,-0.20,0.59,-1.18,11.75,99.3,-55
4231,131.800,0.95,1.38,-0.24,0.69,-1.18,11.75,99.3,-55
4232,131.883,0.99,1.25,-0.29,0.64,-1.03,11.75,99.3,-55
4233,131.967,0.99,1.17,-0.24,0.59,-0.98,11.06,99.3,-55
4234,132.051,0.91,1.29,-0.39,0.59,-1.08,11.06,99.3,-55
4235,132.134,0.97,1.36,-0.34,0.59,-1.18,11.06,99.3,-55
4236,132.218,0.97,1.49,-0.44,0.74,-1.22,11.75,99.4,-59
4237,132.301,0.81,1.45,-0.44,0.74,-1.18,11.75,99.4,-59
4238,132.385,0.70,1.24,-0.44,0.54,-1.03,11.75,99.4,-59
4239,132.469,0.70,1.23,-0.39,0.54,-1.03,11.06,99.4,-59
4240,132.552,0.61,1.28,-0.44,0.54,-1.08,11.06,99.4,-59
4241,132.636,0.51,1.38,-0.34,0.54,-1.22,11.06,99.4,-59
4242,132.720,0.51,1.31,-0.39,0.83,-0.93,11.75,99.4,-59
4243,132.803,0.60,1.24,-0.49,0.78,-0.83,11.75,99.4,-59
4244,132.887,0.61,1.31,-0.39,0.78,-0.98,11.75,99.4,-59
4245,132.970,0.61,1.45,-0.34,0.69,-1.22,11.08,99.4,-59
4246,133.054,0.49,1.55,-0.20,0.69,-1.37,11.10,99.4,-59
4247,133.138,0.52,1.48,-0.15,0.64,-1.32,11.13,99.4,-59
4248,133.238,0.62,1.13,-0.29,0.64,-0.88,11.82,99.4,-58
4249,133.338,0.66,1.05,-0.34,0.54,-0.83,11.82,99.4,-58
4250,133.439,0.66,1.07,-0.29,0.54,-0.88,11.82,99.4,-58
4251,133.539,0.66,1.21,-0.34,0.54,-1.03,11.10,99.4,-58
4252,133.639,0.63,1.35,-0.44,0.59,-1.13,11.08,99.4,-58
4253,133.740,0.58,1.44,-0.54,0.64,-1.18,11.06,99.4,-58
4254,133.823,0.51,1.54,-0.39,0.44,-1.42,11.75,99.5,-63
4255,133.907,0.56,1.53,-0.44,0.64,-1.32,11.75,99.5,-63
4256,133.990,0.58,1.58,-0.44,0.74,-1.32,11.75,99.5,-63
4257,134.074,0.58,1.51,-0.34,0.74,-1.27,11.06,99.5,-63
4258,134.158,0.49,1.46,-0.39,0.83,-1.13,11.06,99.5,-63
4259,134.241,0.47,1.34,-0.34,0.78,-1.03,11.06,99.5,-63
4260,134.325,0.46,1.68,-0.44,0.78,-1.42,11.75,99.5,-56
4261,134.408,0.55,1.72,-0.44,0.78,-1.47,11.75,99.5,-56
4262,134.492,0.58,1.50,-0.39,0.69,-1.27,11.75,99.5,-56
4263,134.576,0.58,1.42,-0.44,0.74,-1.13,11.06,99.5,-56
4264,134.659,0.53,1.48,-0.39,0.74,-1.22,11.06,99.5,-56
4265,134.743,0.62,1.45,-0.34,0.69,-1.22,11.06,99.5,-56
4266,134.826,0.65,1.45,-0.34,0.78,-1.18,11.75,99.5,-66
4267,134.910,0.70,1.44,-0.44,0.78,-1.13,11.75,99.5,-66
4268,134.994,0.74,1.37,-0.29,0.64,-1.18,11.75,99.5,-66
4269,135.077,0.74,1.32,-0.24,0.64,-1.13,11.08,99.5,-66
4270,135.161,0.72,1.28,-0.24,0.64,-1.08,11.10,99.5,-66
4271,135.244,0.72,1.28,-0.24,0.64,-1.08,11.13,99.5,-66
4272,135.345,0.86,1.33,-0.29,0.54,-1.18,11.82,99.5,-64
4273,135.445,0.93,1.43,-0.29,0.69,-1.22,11.82,99.5,-64
4274,135.545,0.90,1.53,-0.34,0.69,-1.32,11.82,99.5,-64
4275,135.646,0.90,1.47,-0.34,0.74,-1.22,11.10,99.5,-64
4276,135.746,0.80,1.45,-0.34,0.69,-1.22,11.08,99.5,-64
4277,135.846,0.80,1.48,-0.39,0.74,-1.22,11.06,99.5,-64
4278,135.930,0.88,1.21,-0.24,0.49,-1.08,11.75,99.6,-63
4279,136.013,1.01,1.20,-0.29,0.54,-1.03,11.75,99.6,-63
4280,136.097,1.00,1.17,-0.34,0.54,-0.98,11.75,99.6,-63
4281,136.181,1.00,1.28,-0.24,0.64,-1.08,11.06,99.6,-63
4282,136.264,0.94,1.43,-0.24,0.69,-1.22,11.06,99.6,-63
4283,136.348,0.98,1.37,-0.49,0.49,-1.18,11.06,99.6,-63
4284,136.431,1.02,1.31,-0.39,0.64,-1.08,11.75,99.6,-60
4285,136.515,0.99,1.22,-0.34,0.64,-0.98,11.75,99.6,-60
4286,136.599,0.95,1.22,-0.44,0.59,-0.98,11.75,99.6,-60
4287,136.682,0.95,1.39,-0.44,0.59,-1.18,11.06,99.6,-60
4288,136.766,0.86,1.44,-0.39,0.54,-1.27,11.06,99.6,-60
4289,136.850,0.84,1.33,-0.29,0.44,-1.22,11.06,99.6,-60
4290,136.933,0.79,1.34,-0.44,0.74,-1.03,11.75,99.6,-60
4291,137.017,0.87,1.36,-0.39,0.74,-1.08,11.75,99.6,-60
4292,137.100,0.92,1.40,-0.34,0.59,-1.22,11.75,99.6,-60
4293,137.184,0.92,1.38,-0.34,0.39,-1.27,11.06,99.6,-60
4294,137.268,0.73,1.47,-0.39,0.34,-1.37,11.06,99.6,-60
4295,137.351,0.71,1.27,-0.29,0.69,-1.03,11.06,99.6,-60
4296,137.452,0.70,1.39,-0.39,0.64,-1.18,11.73,99.6,-70
4297,137.552,0.79,1.40,-0.39,0.74,-1.13,11.71,99.6,-70
4298,137.652,0.78,1.35,-0.44,0.69,-1.08,11.69,99.6,-70
4299,137.752,0.78,1.37,-0.44,0.64,-1.13,11.00,99.6,-70
4300,137.853,0.74,1.33,-0.39,0.59,-1.13,11.00,99.6,-70
4301,137.953,0.65,1.29,-0.39,0.59,-1.08,11.00,99.6,-70
4302,138.037,0.70,1.34,-0.34,0.64,-1.13,11.71,99.7,-56
4303,138.120,0.73,1.35,-0.39,0.64,-1.13,11.73,99.7,-56
4304,138.204,0.74,1.30,-0.29,0.59,-1.13,11.75,99.7,-56
4305,138.288,0.74,1.21,-0.34,0.54,-1.03,11.06,99.7,-56
4306,138.371,0.69,1.31,-0.39,0.54,-1.13,11.06,99.7,-56
4307,138.455,0.67,1.36,-0.34,0.59,-1.18,11.06,99.7,-56
4308,138.539,0.75,1.32,-0.34,0.59,-1.13,11.75,99.7,-55
4309,138.622,0.88,1.30,-0.34,0.64,-1.08,11.75,99.7,-55
4310,138.706,0.94,1.36,-0.34,0.69,-1.13,11.75,99.7,-55
4311,138.789,0.94,1.37,-0.29,0.64,-1.18,11.06,99.7,-55
4312,138.873,0.92,1.30,-0.29,0.59,-1.13,11.06,99.7,-55
4313,138.957,0.85,1.34,-0.24,0.59,-1.18,11.06,99.7,-55
4314,139.040,0.85,1.32,-0.34,0.49,-1.18,11.75,99.7,-65
4315,139.124,0.83,1.27,-0.34,0.59,-1.08,11.75,99.7,-65
4316,139.208,0.80,1.25,-0.39,0.49,-1.08,11.75,99.7,-65
4317,139.292,0.80,1.23,-0.34,0.49,-1.08,11.06,99.7,-65
4318,139.376,0.78,1.43,-0.44,0.69,-1.18,11.06,99.7,-65
4319,139.460,0.75,1.37,-0.44,0.64,-1.13,11.06,99.7,-65
4320,139.543,0.70,1.31,-0.39,0.54,-1.13,11.75,99.7,-68
4321,139.627,0.86,1.30,-0.29,0.59,-1.13,11.75,99.7,-68
4322,139.710,0.95,1.33,-0.20,0.59,-1.18,11.75,99.7,-68
4323,139.794,0.95,1.29,-0.20,0.49,-1.18,11.08,99.7,-68
4324,139.877,0.89,1.32,-0.24,0.54,-1.18,11.10,99.7,-68
4325,139.960,0.86,1.26,-0.15,0.54,-1.13,11.13,99.7,-68
4326,140.061,0.93,1.36,-0.24,0.64,-1.18,11.82,99.7,-64
4327,140.161,1.04,1.39,-0.29,0.59,-1.22,11.82,99.7,-64
4328,140.261,1.08,1.37,-0.29,0.64,-1.18,11.82,99.7,-64
4329,140.361,1.08,1.32,-0.34,0.59,-1.13,11.10,99.7,-64
4330,140.461,1.07,1.30,-0.29,0.59,-1.13,11.08,99.7,-64
4331,140.562,1.09,1.35,-0.29,0.59,-1.18,11.06,99.7,-64
4332,140.645,1.15,1.39,-0.39,0.54,-1.22,11.75,99.8,-64
4333,140.729,1.24,1.31,-0.39,0.54,-1.13,11.75,99.8,-64
4334,140.813,1.27,1.39,-0.29,0.59,-1.22,11.75,99.8,-64
4335,140.896,1.27,1.40,-0.34,0.69,-1.18,11.06,99.8,-64
4336,140.980,1.27,1.30,-0.29,0.59,-1.13,11.06,99.8,-64
4337,141.063,1.18,1.33,-0.29,0.54,-1.18,11.06,99.8,-64
4338,141.147,1.17,1.37,-0.39,0.59,-1.18,11.75,99.8,-64
4339,141.230,1.13,1.30,-0.29,0.59,-1.13,11.75,99.8,-64
4340,141.314,1.10,1.39,-0.29,0.59,-1.22,11.75,99.8,-64
4341,141.397,1.10,1.29,-0.24,0.59,-1.13,11.06,99.8,-64
4342,141.481,1.01,1.35,-0.20,0.54,-1.22,11.06,99.8,-64
4343,141.564,1.01,1.35,-0.29,0.59,-1.18,11.06,99.8,-64
4344,141.648,1.09,1.25,-0.24,0.59,-1.08,11.75,99.8,-58
4345,141.731,1.13,1.36,-0.34,0.59,-1.18,11.75,99.8,-58
4346,141.815,1.06,1.33,-0.29,0.54,-1.18,11.75,99.8,-58
4347,141.899,1.06,1.33,-0.39,0.59,-1.13,11.08,99.8,-58
4348,141.982,0.98,1.39,-0.29,0.59,-1.22,11.11,99.8,-58
4349,142.066,1.00,1.41,-0.39,0.59,-1.22,11.13,99.8,-58
4350,142.166,1.01,1.33,-0.29,0.54,-1.18,11.82,99.8,-57
4351,142.266,0.97,1.30,-0.34,0.54,-1.13,11.82,99.8,-57
4352,142.367,0.97,1.30,-0.34,0.54,-1.13,11.82,99.8,-57
4353,142.467,0.97,1.34,-0.34,0.54,-1.18,11.11,99.8,-57
4354,142.567,0.88,1.25,-0.24,0.59,-1.08,11.09,99.8,-57
4355,142.667,0.80,1.41,-0.24,0.74,-1.18,11.06,99.8,-57
4356,142.751,0.89,1.24,-0.15,0.49,-1.13,11.76,99.8,-58
4357,142.834,0.87,1.19,-0.15,0.59,-1.03,11.76,99.8,-58
4358,142.918,0.95,1.25,-0.29,0.64,-1.03,11.76,99.8,-58
4359,143.001,0.95,1.31,-0.29,0.69,-1.08,11.06,99.8,-58
4360,143.085,0.90,1.30,-0.15,0.64,-1.13,11.06,99.8,-58
4361,143.168,0.77,1.48,-0.29,0.69,-1.27,11.06,99.8,-58
4362,143.252,0.76,1.32,-0.24,0.54,-1.18,11.76,99.8,-56
4363,143.335,0.86,1.35,-0.29,0.59,-1.18,11.76,99.8,-56
4364,143.419,0.83,1.35,-0.29,0.59,-1.18,11.76,99.8,-56
4365,143.503,0.83,1.41,-0.29,0.64,-1.22,11.06,99.8,-56
4366,143.586,0.71,1.22,-0.29,0.59,-1.03,11.06,99.8,-56
4367,143.670,0.75,1.34,-0.34,0.54,-1.18,11.06,99.8,-56
4368,143.753,0.75,1.44,-0.34,0.59,-1.27,11.76,99.8,-53
4369,143.837,0.75,1.37,-0.39,0.59,-1.18,11.76,99.8,-53
4370,143.921,0.79,1.30,-0.34,0.54,-1.13,11.76,99.8,-53
4371,144.004,0.79,1.30,-0.34,0.54,-1.13,11.09,99.8,-53
4372,144.088,0.62,1.27,-0.39,0.54,-1.08,11.11,99.8,-53
4373,144.172,0.53,1.34,-0.49,0.64,-1.08,11.13,99.8,-53
4374,144.272,0.62,1.43,-0.29,0.83,-1.13,11.82,99.8,-57
4375,144.372,0.73,1.35,-0.20,0.78,-1.08,11.82,99.8,-57
4376,144.472,0.66,1.20,-0.20,0.74,-0.93,11.82,99.8,-57
4377,144.573,0.66,1.28,-0.34,0.69,-1.03,11.11,99.8,-57
4378,144.673,0.62,1.34,-0.39,0.69,-1.08,11.09,99.8,-57
4379,144.773,0.59,1.30,-0.44,0.74,-0.98,11.07,99.8,-57
4380,144.857,0.56,1.18,-0.39,0.69,-0.88,11.76,99.8,-43
4381,144.940,0.61,1.13,-0.20,0.69,-0.88,11.76,99.8,-43
4382,145.024,0.62,1.30,-0.34,0.83,-0.93,11.76,99.8,-43
4383,145.107,0.62,1.36,-0.34,0.93,-0.93,11.07,99.8,-43
4384,145.191,0.63,1.27,-0.39,0.83,-0.88,11.07,99.8,-43
4385,145.275,0.60,1.21,-0.39,0.78,-0.83,11.07,99.8,-43
4386,145.358,0.63,1.39,-0.54,0.88,-0.93,11.76,99.9,-43
4387,145.442,0.56,1.39,-0.44,0.93,-0.93,11.76,99.9,-43
4388,145.525,0.46,1.33,-0.34,0.88,-0.93,11.76,99.9,-43
4389,145.609,0.46,1.25,-0.29,0.78,-0.93,11.07,99.9,-43
4390,145.692,0.36,1.41,-0.24,0.93,-1.03,11.07,99.9,-43
4391,145.775,0.30,1.25,-0.29,0.78,-0.93,11.07,99.9,-43
4392,145.859,0.31,1.38,-0.24,1.03,-0.88,11.76,99.9,-50
4393,145.943,0.35,1.42,-0.29,1.08,-0.88,11.76,99.9,-50
4394,146.026,0.23,1.36,-0.29,1.03,-0.83,11.76,99.9,-50
4395,146.110,0.23,1.37,-0.20,1.03,-0.88,11.09,99.9,-50
4396,146.194,0.07,1.37,-0.24,0.93,-0.98,11.11,99.9,-50
4397,146.277,0.01,1.32,-0.44,0.88,-0.88,11.13,99.9,-50
4398,146.377,0.02,1.01,0.05,0.78,-0.64,11.83,99.9,-50
4399,146.478,0.03,3.20,0.15,3.04,-0.98,11.83,99.9,-50
4400,146.578,0.02,1.03,0.10,0.93,-0.44,11.83,99.9,-50
4401,146.678,0.02,1.21,0.05,1.08,-0.54,11.11,99.9,-50
4402,146.779,-0.06,4.98,0.39,4.66,-1.72,11.09,99.9,-50
4403,146.879,-0.09,1.12,0.00,0.98,-0.54,11.07,99.9,-50
4404,146.962,-0.07,1.27,0.00,1.13,-0.59,11.76,99.9,-50
4405,147.046,-0.13,1.42,-0.20,1.22,-0.69,11.76,99.9,-50
4406,147.130,-0.17,1.37,-0.15,1.27,-0.49,11.76,99.9,-50
4407,147.213,-0.17,1.36,0.00,1.27,-0.49,11.07,99.9,-50
4408,147.297,-0.25,1.32,-0.05,1.22,-0.49,11.07,99.9,-50
4409,147.381,-0.34,1.32,-0.10,1.27,-0.34,11.07,99.9,-50
4410,147.464,-0.35,0.91,0.15,0.88,0.15,11.76,99.9,-56
4411,147.548,-0.24,1.05,0.05,1.03,0.20,11.76,99.9,-56
4412,147.631,-0.23,1.00,0.05,0.98,0.20,11.76,99.9,-56
4413,147.715,-0.23,0.73,0.15,0.69,0.20,11.07,99.9,-56
4414,147.798,-0.33,0.64,0.15,0.59,0.20,11.07,99.9,-56
4415,147.882,-0.31,0.74,0.15,0.69,0.24,11.07,99.9,-56
4416,147.965,-0.25,0.84,0.00,0.69,0.49,11.76,99.9,-50
4417,148.049,-0.23,1.02,0.00,0.83,0.59,11.76,99.9,-50
4418,148.133,-0.23,0.86,0.00,0.74,0.44,11.76,99.9,-50
4419,148.217,-0.31,0.97,0.00,0.88,0.39,11.07,99.9,-50
4420,148.300,-0.36,0.92,0.00,0.83,0.39,11.07,99.9,-50
4421,148.384,-0.43,1.06,-0.05,0.98,0.39,11.07,99.9,-50
4422,148.467,-0.43,1.01,0.00,0.98,0.24,11.76,99.9,-56
4423,148.551,-0.32,1.02,-0.05,0.98,0.29,11.76,99.9,-56
4424,148.634,-0.32,1.04,0.00,0.98,0.34,11.76,99.9,-56
4425,148.718,-0.42,0.99,0.00,0.93,0.34,11.09,99.9,-56
4426,148.801,-0.47,1.08,0.00,1.03,0.34,11.11,99.9,-56
4427,148.885,-0.47,1.06,-0.05,0.98,0.39,11.13,99.9,-56
4428,148.985,-0.57,0.99,-0.05,0.93,0.34,11.83,99.9,-58
4429,149.085,-0.48,1.06,-0.05,1.03,0.24,11.83,99.9,-58
4430,149.185,-0.41,0.98,0.00,0.93,0.29,11.83,99.9,-58
4431,149.286,-0.41,1.04,0.00,0.98,0.34,11.11,99.9,-58
4432,149.386,-0.49,0.98,-0.05,0.93,0.29,11.09,99.9,-58
4433,149.486,-0.48,1.09,-0.05,1.03,0.34,11.07,99.9,-58
4434,149.570,-0.55,1.13,-0.05,1.13,0.05,11.76,99.9,-53
4435,149.653,-0.50,1.08,-0.05,1.08,0.05,11.76,99.9,-53
4436,149.737,-0.50,1.13,-0.10,1.13,0.05,11.76,99.9,-53
4437,149.821,-0.50,1.23,-0.05,1.22,0.00,11.07,99.9,-53
4438,149.904,-0.48,1.18,-0.05,1.18,0.00,11.07,99.9,-53
4439,149.988,-0.55,1.18,-0.05,1.18,0.05,11.07,99.9,-53
4440,150.072,-0.46,1.13,-0.05,1.13,-0.05,11.76,99.9,-48
4441,150.155,-0.47,1.18,-0.05,1.18,0.00,11.76,99.9,-48
4442,150.239,-0.54,1.18,-0.05,1.18,0.00,11.76,99.9,-48
4443,150.322,-0.54,1.18,0.00,1.18,-0.05,11.07,99.9,-48
4444,150.406,-0.60,1.18,-0.05,1.18,-0.10,11.07,99.9,-48
4445,150.490,-0.58,1.18,-0.10,1.18,-0.05,11.07,99.9,-48
4446,150.573,-0.60,1.22,0.00,1.22,0.00,11.76,99.9,-52
4447,150.657,-0.56,1.18,-0.05,1.18,0.05,11.76,99.9,-52
4448,150.740,-0.56,1.23,-0.05,1.22,0.05,11.76,99.9,-52
4449,150.824,-0.59,1.23,-0.10,1.22,0.05,11.09,99.9,-52
4450,150.908,-0.65,1.23,-0.05,1.22,-0.05,11.11,99.9,-52
4451,150.991,-0.62,1.18,-0.05,1.18,0.05,11.13,99.9,-52
4452,151.092,-0.62,1.18,-0.05,1.18,-0.05,11.83,99.9,-55
4453,151.192,-0.49,1.18,-0.05,1.18,-0.05,11.83,99.9,-55
4454,151.292,-0.48,1.18,-0.05,1.18,-0.10,11.83,99.9,-55
4455,151.392,-0.48,1.23,-0.05,1.22,-0.05,11.11,99.9,-55
4456,151.493,-0.49,1.23,-0.05,1.22,-0.15,11.09,99.9,-55
4457,151.593,-0.56,1.14,-0.10,1.13,-0.10,11.07,99.9,-55
4458,151.677,-0.50,1.23,-0.05,1.22,-0.05,11.76,99.9,-49
4459,151.760,-0.37,1.18,-0.05,1.18,-0.10,11.76,99.9,-49
4460,151.844,-0.34,1.23,-0.05,1.22,-0.15,11.76,99.9,-49
4461,151.927,-0.34,1.28,-0.05,1.27,-0.10,11.07,99.9,-49
4462,152.011,-0.33,1.23,-0.05,1.22,-0.05,11.07,99.9,-49
4463,152.095,-0.21,1.28,-0.10,1.27,-0.05,11.07,99.9,-49
4464,152.178,-0.12,1.08,-0.05,1.08,0.00,11.76,99.9,-51
4465,152.261,-0.05,1.18,-0.05,1.18,0.05,11.76,99.9,-51
4466,152.345,-0.04,1.13,-0.10,1.13,0.05,11.76,99.9,-51
4467,152.428,-0.04,1.18,-0.05,1.18,0.05,11.07,99.9,-51
4468,152.512,-0.16,1.18,-0.10,1.18,-0.05,11.07,99.9,-51
4469,152.595,-0.19,1.18,-0.10,1.18,-0.05,11.07,99.9,-51
4470,152.679,-0.18,1.09,0.00,1.08,0.15,11.76,99.9,-52
4471,152.763,-0.17,1.06,-0.05,1.03,0.24,11.76,99.9,-52
4472,152.846,-0.17,1.09,-0.05,1.08,0.15,11.76,99.9,-52
4473,152.930,-0.16,1.14,-0.05,1.13,0.20,11.09,99.9,-52
4474,153.014,-0.16,0.99,0.00,0.98,0.15,11.11,99.9,-52
4475,153.097,-0.20,1.14,0.00,1.13,0.20,11.13,99.9,-52
4476,153.181,-0.19,1.10,-0.05,1.08,0.20,11.85,99.9,-55
4477,153.264,-0.14,1.14,0.00,1.13,0.15,11.87,99.9,-55
4478,153.348,-0.10,1.10,0.00,1.08,0.20,11.89,99.9,-55
4479,153.432,-0.10,1.19,-0.05,1.18,0.15,11.20,99.9,-55
4480,153.515,-0.12,1.06,0.00,1.03,0.24,11.20,99.9,-55
4481,153.599,-0.22,1.05,-0.05,1.03,0.20,11.20,99.9,-55
4482,153.699,-0.14,1.04,0.00,1.03,0.15,11.87,99.9,-54
4483,153.799,-0.10,1.14,0.00,1.13,0.15,11.85,99.9,-54
4484,153.900,-0.11,1.09,-0.05,1.08,0.15,11.83,99.9,-54
4485,154.000,-0.11,1.10,0.00,1.08,0.20,11.11,99.9,-54
4486,154.100,-0.12,1.08,-0.05,1.08,0.10,11.09,99.9,-54
4487,154.200,-0.17,1.08,-0.05,1.08,0.10,11.07,99.9,-54
4488,154.284,-0.16,1.05,0.00,1.03,0.20,11.76,99.9,-54
4489,154.368,-0.16,1.05,0.00,1.03,0.20,11.76,99.9,-54
4490,154.451,-0.08,1.05,0.00,1.03,0.20,11.76,99.9,-54
4491,154.535,-0.08,1.10,0.00,1.08,0.20,11.07,99.9,-54
4492,154.619,-0.16,1.11,0.00,1.08,0.24,11.07,99.9,-54
4493,154.702,-0.22,1.08,0.00,1.08,0.10,11.07,99.9,-54
4494,154.786,-0.22,1.21,-0.29,1.13,0.34,11.76,100.0,-60
4495,154.870,-0.21,1.23,-0.29,1.13,0.39,11.76,100.0,-60
4496,154.953,-0.16,1.20,-0.29,1.13,0.29,11.76,100.0,-60
4497,155.037,-0.16,1.18,-0.10,1.18,0.00,11.09,100.0,-60
4498,155.120,-0.31,1.08,-0.05,1.08,0.00,11.11,100.0,-60
4499,155.204,-0.28,0.93,-0.05,0.88,0.29,11.13,100.0,-60
4500,155.288,-0.28,1.01,-0.15,0.98,0.20,11.85,100.0,-53
4501,155.371,-0.17,0.90,-0.15,0.88,0.10,11.87,100.0,-53
4502,155.455,-0.09,1.00,0.15,0.98,0.10,11.89,100.0,-53
4503,155.538,-0.09,1.03,0.05,1.03,0.10,11.19,100.0,-53
4504,155.622,-0.20,1.42,-0.20,1.37,0.29,11.19,100.0,-53
4505,155.706,-0.21,1.39,-0.15,1.22,0.64,11.19,100.0,-53
4506,155.806,-0.17,1.01,0.39,0.93,0.10,11.87,100.0,-53
4507,155.906,-0.21,0.58,0.10,0.49,-0.29,11.85,100.0,-53
4508,156.006,-0.26,1.34,0.05,1.32,0.20,11.82,100.0,-53
4509,156.107,-0.26,1.03,0.10,0.93,0.44,11.11,100.0,-53
4510,156.207,-0.30,1.32,0.24,1.22,0.44,11.09,100.0,-53
4511,156.307,-0.29,1.08,-0.10,0.98,0.44,11.06,100.0,-53
4512,156.391,-0.33,1.00,0.15,0.93,0.34,11.76,100.0,-61
4513,156.474,-0.30,0.95,0.29,0.78,0.44,11.76,100.0,-61
4514,156.558,-0.31,0.86,0.24,0.78,0.24,11.76,100.0,-61
4515,156.641,-0.31,0.95,0.15,0.93,0.15,11.07,100.0,-61
4516,156.724,-0.43,1.04,0.10,1.03,0.10,11.07,100.0,-61
4517,156.808,-0.51,1.19,0.15,1.18,0.10,11.07,100.0,-61
4518,156.892,-0.52,1.04,0.10,1.03,0.10,11.76,100.0,-60
4519,156.976,-0.43,1.15,0.15,1.13,0.15,11.76,100.0,-60
4520,157.059,-0.37,1.04,0.10,1.03,0.15,11.76,100.0,-60
4521,157.143,-0.37,1.09,0.10,1.08,0.10,11.07,100.0,-60
4522,157.227,-0.43,1.08,0.05,1.08,0.10,11.06,100.0,-60
4523,157.311,-0.44,1.04,0.15,1.03,0.10,11.06,100.0,-60
4524,157.394,-0.40,1.08,0.10,1.08,0.05,11.76,100.0,-55
4525,157.478,-0.29,1.15,0.15,1.13,0.15,11.76,100.0,-55
4526,157.562,-0.33,1.04,0.15,1.03,0.10,11.76,100.0,-55
4527,157.645,-0.33,1.04,0.10,1.03,0.15,11.08,100.0,-55
4528,157.729,-0.41,1.00,0.15,0.98,0.10,11.11,100.0,-55
4529,157.813,-0.46,1.09,0.15,1.08,0.10,11.13,100.0,-55
4530,157.913,-0.42,1.09,0.10,1.08,0.10,11.82,100.0,-60
4531,158.013,-0.36,1.10,0.15,1.08,0.15,11.82,100.0,-60
4532,158.113,-0.43,1.14,0.15,1.13,0.10,11.82,100.0,-60
4533,158.214,-0.43,1.09,0.15,1.08,0.10,11.11,100.0,-60
4534,158.314,-0.43,1.14,0.10,1.13,0.15,11.08,100.0,-60
4535,158.414,-0.52,1.14,0.10,1.13,0.10,11.06,100.0,-60
4536,158.498,-0.51,1.04,0.15,1.03,0.05,11.76,100.0,-56
4537,158.581,-0.44,1.04,0.15,1.03,0.10,11.76,100.0,-56
4538,158.665,-0.44,1.09,0.15,1.08,0.10,11.76,100.0,-56
4539,158.749,-0.44,1.09,0.15,1.08,0.10,11.06,100.0,-56
4540,158.832,-0.51,1.09,0.15,1.08,0.10,11.06,100.0,-56
4541,158.916,-0.54,1.05,0.15,1.03,0.15,11.06,100.0,-56
4542,159.000,-0.52,1.05,0.15,1.03,0.15,11.75,100.0,-54
4543,159.083,-0.46,1.05,0.20,1.03,0.10,11.75,100.0,-54
4544,159.167,-0.41,1.10,0.15,1.08,0.15,11.75,100.0,-54
4545,159.250,-0.41,1.09,0.15,1.08,0.10,11.06,100.0,-54
4546,159.334,-0.41,1.04,0.15,1.03,0.10,11.06,100.0,-54
4547,159.418,-0.48,1.08,0.05,1.08,0.10,11.06,100.0,-54
4548,159.501,-0.44,1.04,0.15,1.03,0.10,11.76,100.0,-61
4549,159.585,-0.37,1.09,0.15,1.08,0.05,11.76,100.0,-61
4550,159.668,-0.34,1.11,0.20,1.08,0.15,11.76,100.0,-61
4551,159.752,-0.34,1.09,0.15,1.08,0.10,11.09,100.0,-61
4552,159.836,-0.42,1.09,0.15,1.08,0.10,11.11,100.0,-61
4553,159.919,-0.40,1.09,0.15,1.08,0.10,11.13,100.0,-61
4554,160.019,-0.42,1.04,0.10,1.03,0.10,11.82,100.0,-57
4555,160.120,-0.49,1.09,0.15,1.08,0.05,11.82,100.0,-57
4556,160.220,-0.44,1.06,0.20,1.03,0.15,11.82,100.0,-57
4557,160.320,-0.44,1.09,0.15,1.08,0.10,11.11,100.0,-57
4558,160.420,-0.47,1.09,0.15,1.08,0.10,11.09,100.0,-57
4559,160.521,-0.48,1.04,0.15,1.03,0.10,11.06,100.0,-57
4560,160.604,-0.52,1.09,0.10,1.08,0.10,11.76,100.0,-66
4561,160.688,-0.46,1.09,0.15,1.08,0.10,11.76,100.0,-66
4562,160.772,-0.50,1.10,0.15,1.08,0.15,11.76,100.0,-66
4563,160.855,-0.50,1.09,0.15,1.08,0.10,11.06,100.0,-66
4564,160.939,-0.55,1.05,0.15,1.03,0.15,11.06,100.0,-66
4565,161.022,-0.56,1.09,0.15,1.08,0.10,11.06,100.0,-66
4566,161.106,-0.55,1.03,0.10,1.03,0.05,11.75,100.0,-61
4567,161.190,-0.51,1.14,0.15,1.13,0.10,11.75,100.0,-61
4568,161.273,-0.51,1.09,0.15,1.08,0.10,11.75,100.0,-61
4569,161.357,-0.51,1.09,0.15,1.08,0.10,11.06,100.0,-61
4570,161.441,-0.53,1.09,0.15,1.08,0.10,11.06,100.0,-61
4571,161.524,-0.56,1.13,0.10,1.13,0.05,11.06,100.0,-61
4572,161.608,-0.60,1.09,0.10,1.08,0.10,11.75,100.0,-60
4573,161.692,-0.56,1.09,0.10,1.08,0.10,11.75,100.0,-60
4574,161.775,-0.56,1.09,0.15,1.08,0.10,11.75,100.0,-60
4575,161.859,-0.56,1.09,0.15,1.08,0.05,11.06,100.0,-60
4576,161.942,-0.63,1.08,0.10,1.08,0.05,11.06,100.0,-60
4577,162.026,-0.66,1.09,0.15,1.08,0.10,11.06,100.0,-60
4578,162.110,-0.60,1.09,0.10,1.08,0.10,11.75,100.0,-61
4579,162.193,-0.58,1.09,0.10,1.08,0.10,11.75,100.0,-61
4580,162.277,-0.56,1.09,0.10,1.08,0.10,11.75,100.0,-61
4581,162.361,-0.56,1.14,0.10,1.13,0.10,11.08,100.0,-61
4582,162.444,-0.69,1.08,0.10,1.08,0.05,11.10,100.0,-61
4583,162.528,-0.82,1.08,0.10,1.08,0.05,11.13,100.0,-61
4584,162.628,-0.74,1.04,0.10,1.03,0.10,11.82,100.0,-57
4585,162.728,-0.67,1.04,0.10,1.03,0.10,11.82,100.0,-57
4586,162.829,-0.66,1.10,0.20,1.08,0.05,11.82,100.0,-57
4587,162.929,-0.66,1.09,0.15,1.08,0.10,11.10,100.0,-57
4588,163.029,-0.68,1.09,0.10,1.08,0.10,11.08,100.0,-57
4589,163.129,-0.68,1.10,0.15,1.08,0.15,11.06,100.0,-57
4590,163.213,-0.69,1.04,0.15,1.03,0.05,11.75,100.0,-61
4591,163.297,-0.62,1.04,0.15,1.03,0.10,11.75,100.0,-61
4592,163.380,-0.59,1.13,0.10,1.13,0.05,11.75,100.0,-61
4593,163.464,-0.59,1.14,0.10,1.13,0.10,11.06,100.0,-61
4594,163.547,-0.62,1.10,0.15,1.08,0.15,11.06,100.0,-61
4595,163.631,-0.68,1.14,0.10,1.13,0.10,11.06,100.0,-61
4596,163.715,-0.58,1.09,0.10,1.08,0.10,11.75,100.0,-59
4597,163.798,-0.48,1.15,0.15,1.13,0.15,11.75,100.0,-59
4598,163.882,-0.47,1.09,0.15,1.08,0.10,11.75,100.0,-59
4599,163.965,-0.47,1.10,0.15,1.08,0.15,11.06,100.0,-59
4600,164.049,-0.49,1.04,0.10,1.03,0.10,11.06,100.0,-59
4601,164.133,-0.54,1.09,0.15,1.08,0.10,11.06,100.0,-59
4602,164.216,-0.54,1.04,0.15,1.03,0.10,11.75,100.0,-63
4603,164.300,-0.53,1.08,0.05,1.08,0.10,11.75,100.0,-63
4604,164.384,-0.52,1.14,0.10,1.13,0.10,11.75,100.0,-63
4605,164.467,-0.52,1.09,0.15,1.08,0.10,11.08,100.0,-63
4606,164.551,-0.57,1.14,0.15,1.13,0.05,11.11,100.0,-63
4607,164.634,-0.63,1.09,0.15,1.08,0.10,11.13,100.0,-63
4608,164.735,-0.53,1.10,0.15,1.08,0.15,11.82,100.0,-60
4609,164.835,-0.57,1.14,0.15,1.13,0.05,11.82,100.0,-60
4610,164.935,-0.58,1.09,0.15,1.08,0.10,11.82,100.0,-60
4611,165.035,-0.58,1.09,0.15,1.08,0.10,11.11,100.0,-60
4612,165.136,-0.58,1.09,0.15,1.08,0.10,11.08,100.0,-60
4613,165.236,-0.52,1.04,0.15,1.03,0.10,11.06,100.0,-60
4614,165.320,-0.50,1.09,0.10,1.08,0.10,11.75,100.0,-58
4615,165.403,-0.49,1.14,0.15,1.13,0.05,11.75,100.0,-58
4616,165.487,-0.52,1.09,0.15,1.08,0.05,11.75,100.0,-58
4617,165.571,-0.52,1.13,0.10,1.13,0.05,11.06,100.0,-58
4618,165.654,-0.66,1.09,0.15,1.08,0.10,11.06,100.0,-58
4619,165.738,-0.71,1.14,0.10,1.13,0.10,11.06,100.0,-58
4620,165.822,-0.70,1.09,0.15,1.08,0.10,11.75,100.0,-59
4621,165.905,-0.64,1.09,0.10,1.08,0.10,11.75,100.0,-59
4622,165.989,-0.56,1.04,0.15,1.03,0.10,11.75,100.0,-59
4623,166.072,-0.56,1.04,0.15,1.03,0.10,11.06,100.0,-59
4624,166.156,-0.65,1.09,0.15,1.08,0.10,11.06,100.0,-59
4625,166.239,-0.61,1.09,0.10,1.08,0.15,11.06,100.0,-59
4626,166.323,-0.59,1.09,0.10,1.08,0.10,11.75,100.0,-59
4627,166.407,-0.51,1.15,0.15,1.13,0.20,11.75,100.0,-59
4628,166.490,-0.43,1.08,0.10,1.08,0.05,11.75,100.0,-59
4629,166.574,-0.43,1.09,0.15,1.08,0.10,11.08,100.0,-59
4630,166.658,-0.44,1.08,0.10,1.08,0.05,11.11,100.0,-59
4631,166.741,-0.38,1.14,0.10,1.13,0.10,11.13,100.0,-59
4632,166.842,-0.29,1.09,0.10,1.08,0.10,11.82,100.0,-58
4633,166.942,-0.28,1.10,0.15,1.08,0.15,11.82,100.0,-58
4634,167.042,-0.20,1.04,0.10,1.03,0.15,11.82,100.0,-58
4635,167.142,-0.20,1.09,0.15,1.08,0.10,11.11,100.0,-58
4636,167.242,-0.27,1.10,0.15,1.08,0.15,11.08,100.0,-58
4637,167.343,-0.33,1.09,0.15,1.08,0.10,11.06,100.0,-58
4638,167.426,-0.36,1.09,0.10,1.08,0.10,11.75,100.0,-58
4639,167.510,-0.20,1.09,0.15,1.08,0.10,11.75,100.0,-58
4640,167.593,-0.20,1.05,0.20,1.03,0.10,11.75,100.0,-58
4641,167.677,-0.20,1.10,0.20,1.08,0.05,11.06,100.0,-58
4642,167.761,-0.26,1.04,0.10,1.03,0.10,11.06,100.0,-58
4643,167.844,-0.23,1.04,0.10,1.03,0.10,11.06,100.0,-58
4644,167.928,-0.20,1.09,0.15,1.08,0.10,11.75,100.0,-53
4645,168.011,-0.12,1.09,0.10,1.08,0.10,11.75,100.0,-53
4646,168.095,-0.08,1.04,0.10,1.03,0.10,11.75,100.0,-53
4647,168.178,-0.08,1.10,0.15,1.08,0.15,11.06,100.0,-53
4648,168.262,-0.19,1.04,0.15,1.03,0.05,11.06,100.0,-53
4649,168.345,-0.24,1.04,0.15,1.03,0.05,11.06,100.0,-53
4650,168.429,-0.19,1.08,0.10,1.08,0.05,11.75,100.0,-51
4651,168.513,-0.21,1.14,0.15,1.13,0.10,11.75,100.0,-51
4652,168.597,-0.14,1.10,0.20,1.08,0.10,11.75,100.0,-51
4653,168.680,-0.14,1.14,0.10,1.13,0.15,11.08,100.0,-51
4654,168.764,-0.24,1.09,0.34,1.03,0.10,11.11,100.0,-51
4655,168.848,-0.23,0.99,0.05,0.98,0.10,11.13,100.0,-51
4656,168.948,-0.17,1.24,0.10,1.18,-0.39,11.82,100.0,-51
4657,169.049,-0.13,1.26,0.24,1.18,-0.39,11.82,100.0,-51
4658,169.149,-0.07,1.31,0.15,1.22,-0.44,11.82,100.0,-51
4659,169.249,-0.07,1.23,0.20,1.13,-0.44,11.10,100.0,-51
4660,169.350,-0.17,1.18,0.15,0.98,-0.64,11.08,100.0,-51
4661,169.450,-0.21,1.32,0.20,1.08,-0.74,11.06,100.0,-51
4662,169.534,-0.21,1.01,0.20,0.98,0.15,11.75,100.0,-55
4663,169.617,-0.21,1.15,0.34,1.08,0.20,11.75,100.0,-55
4664,169.701,-0.18,1.18,0.29,1.08,0.39,11.75,100.0,-55
4665,169.784,-0.18,1.11,0.10,1.03,0.39,11.06,100.0,-55
4666,169.868,-0.24,1.05,0.05,0.93,0.49,11.06,100.0,-55
4667,169.951,-0.24,1.09,0.20,0.98,0.44,11.06,100.0,-55
4668,170.035,-0.13,0.93,-0.10,0.83,0.39,11.75,100.0,-49
4669,170.119,-0.07,1.10,0.00,1.03,0.39,11.75,100.0,-49
4670,170.202,-0.04,1.07,0.00,1.03,0.29,11.75,100.0,-49
4671,170.286,-0.04,1.18,-0.05,1.13,0.34,11.06,100.0,-49
4672,170.369,-0.05,1.17,-0.05,1.13,0.29,11.06,100.0,-49
4673,170.453,-0.04,1.22,-0.15,1.13,0.44,11.06,100.0,-49
4674,170.537,-0.01,1.33,-0.83,0.88,0.54,11.75,100.0,-41
4675,170.620,0.09,1.24,-0.74,0.83,0.54,11.75,100.0,-41
4676,170.704,0.19,0.39,-0.29,0.24,-0.10,11.75,100.0,-41
4677,170.788,0.19,0.29,0.00,0.24,-0.15,11.06,100.0,-41
4678,170.871,0.16,0.44,-0.05,0.44,0.00,11.06,100.0,-41
4679,170.955,0.19,0.35,-0.05,0.24,-0.24,11.06,100.0,-41
4680,171.055,0.23,0.90,-0.74,0.34,0.39,11.73,100.0,-41
4681,171.156,0.24,0.86,-0.69,0.39,0.34,11.71,100.0,-41
4682,171.256,0.22,0.90,-0.74,0.39,0.34,11.69,100.0,-41
4683,171.356,0.22,0.90,-0.69,0.44,0.39,11.00,100.0,-41
4684,171.457,0.15,0.99,-0.78,0.49,0.34,11.00,100.0,-41
4685,171.557,0.15,0.84,-0.69,0.44,0.20,11.00,100.0,-41
4686,171.640,0.11,1.08,-0.83,0.64,0.24,11.71,100.0,-40
4687,171.724,0.12,1.07,-0.78,0.69,0.24,11.73,100.0,-40
4688,171.807,0.16,0.97,-0.78,0.54,0.20,11.75,100.0,-40
4689,171.891,0.16,0.97,-0.78,0.54,0.20,11.06,100.0,-40
4690,171.974,0.05,0.95,-0.78,0.49,0.20,11.06,100.0,-40
4691,172.058,-0.02,0.98,-0.83,0.49,0.15,11.06,100.0,-40
4692,172.141,0.07,1.03,-0.78,0.64,0.20,11.75,100.0,-41
4693,172.225,0.12,1.08,-0.78,0.69,0.29,11.75,100.0,-41
4694,172.309,0.14,1.07,-0.83,0.64,0.20,11.75,100.0,-41
4695,172.392,0.14,1.08,-0.83,0.64,0.24,11.06,100.0,-41
4696,172.476,-0.01,1.05,-0.78,0.64,0.29,11.06,100.0,-41
4697,172.560,-0.10,1.01,-0.78,0.59,0.24,11.06,100.0,-41
4698,172.643,-0.05,1.05,-0.78,0.69,0.10,11.75,100.0,-42
4699,172.727,-0.08,1.00,-0.78,0.59,0.20,11.75,100.0,-42
4700,172.811,-0.14,1.02,-0.78,0.64,0.15,11.75,100.0,-42
4701,172.894,-0.14,1.06,-0.78,0.69,0.20,11.06,100.0,-42
4702,172.978,-0.14,1.02,-0.78,0.64,0.15,11.06,100.0,-42
4703,173.062,-0.21,1.05,-0.78,0.69,0.10,11.06,100.0,-42
4704,173.145,-0.15,1.02,-0.78,0.64,0.15,11.75,100.0,-41
4705,173.229,-0.08,1.00,-0.74,0.64,0.24,11.75,100.0,-41
4706,173.312,-0.08,1.10,-0.83,0.69,0.20,11.75,100.0,-41
4707,173.396,-0.08,1.02,-0.78,0.64,0.15,11.08,100.0,-41
4708,173.480,-0.11,1.03,-0.78,0.64,0.20,11.11,100.0,-41
4709,173.563,-0.08,0.99,-0.78,0.59,0.15,11.13,100.0,-41
4710,173.663,-0.07,1.05,-0.74,0.69,0.29,11.82,100.0,-42
4711,173.764,-0.02,1.07,-0.69,0.78,0.24,11.82,100.0,-42
4712,173.864,-0.01,1.07,-0.74,0.74,0.24,11.82,100.0,-42
4713,173.964,-0.01,1.04,-0.74,0.69,0.24,11.11,100.0,-42
4714,174.064,-0.08,1.06,-0.78,0.69,0.20,11.08,100.0,-42
4715,174.165,-0.07,1.10,-0.74,0.78,0.24,11.06,100.0,-42
4716,174.248,-0.06,1.00,-0.78,0.59,0.20,11.75,100.0,-42
4717,174.332,-0.03,0.97,-0.69,0.64,0.24,11.75,100.0,-42
4718,174.416,-0.04,1.08,-0.74,0.69,0.39,11.75,100.0,-42
4719,174.499,-0.04,1.13,-0.78,0.74,0.34,11.06,100.0,-42
4720,174.583,-0.12,1.10,-0.74,0.69,0.44,11.06,100.0,-42
4721,174.666,-0.14,1.01,-0.69,0.69,0.29,11.06,100.0,-42
4722,174.750,-0.06,1.00,-0.74,0.64,0.24,11.75,100.0,-44
4723,174.834,-0.08,0.96,-0.74,0.54,0.29,11.75,100.0,-44
4724,174.917,-0.09,1.03,-0.64,0.64,0.49,11.75,100.0,-44
4725,175.001,-0.09,0.97,-0.69,0.64,0.24,11.06,100.0,-44
4726,175.085,-0.21,0.97,-0.69,0.64,0.24,11.06,100.0,-44
4727,175.168,-0.19,1.06,-0.74,0.69,0.34,11.06,100.0,-44
4728,175.252,-0.15,0.92,-0.59,0.59,0.39,11.75,100.0,-43
4729,175.335,-0.09,0.91,-0.59,0.49,0.49,11.75,100.0,-43
4730,175.419,-0.13,0.87,-0.54,0.34,0.59,11.75,100.0,-43
4731,175.503,-0.13,0.74,-0.49,0.24,0.49,11.08,100.0,-43
4732,175.586,-0.14,0.84,-0.54,0.10,0.64,11.11,100.0,-43
4733,175.670,-0.17,0.87,-0.54,0.05,0.69,11.13,100.0,-43
4734,175.770,-0.17,0.95,-0.64,0.64,0.29,11.82,100.0,-43
4735,175.871,-0.08,1.08,-0.69,0.78,0.29,11.82,100.0,-43
4736,175.971,-0.15,0.98,-0.64,0.69,0.29,11.82,100.0,-43
4737,176.071,-0.15,0.94,-0.59,0.69,0.24,11.10,100.0,-43
4738,176.171,-0.16,1.13,-0.69,0.88,0.20,11.08,100.0,-43
4739,176.272,-0.17,1.07,-0.59,0.88,0.15,11.06,100.0,-43
4740,176.355,-0.14,0.99,-0.69,0.59,0.39,11.75,100.0,-43
4741,176.439,-0.09,0.95,-0.59,0.64,0.39,11.75,100.0,-43
4742,176.522,-0.08,0.95,-0.59,0.64,0.39,11.75,100.0,-43
4743,176.606,-0.08,1.03,-0.64,0.78,0.20,11.06,100.0,-43
4744,176.690,-0.17,1.02,-0.64,0.74,0.29,11.06,100.0,-43
4745,176.773,-0.16,0.96,-0.59,0.74,0.20,11.06,100.0,-43
4746,176.857,-0.10,0.99,-0.59,0.69,0.39,11.75,100.0,-44
4747,176.941,-0.04,1.00,-0.59,0.74,0.34,11.75,100.0,-44
4748,177.024,-0.09,0.95,-0.59,0.64,0.39,11.75,100.0,-44
4749,177.108,-0.09,0.99,-0.59,0.74,0.29,11.06,100.0,-44
4750,177.192,-0.32,1.01,-0.59,0.69,0.44,11.06,100.0,-44
4751,177.275,-0.32,1.05,-0.69,0.74,0.29,11.06,100.0,-44
4752,177.359,-0.24,1.06,-0.69,0.74,0.34,11.75,100.0,-42
4753,177.442,-0.17,1.05,-0.69,0.74,0.29,11.75,100.0,-42
4754,177.526,-0.22,0.93,-0.64,0.59,0.34,11.75,100.0,-42
4755,177.610,-0.22,0.98,-0.64,0.64,0.39,11.08,100.0,-42
4756,177.693,-0.24,0.90,-0.64,0.54,0.34,11.11,100.0,-42
4757,177.777,-0.31,1.00,-0.64,0.64,0.44,11.13,100.0,-42
4758,177.877,-0.30,0.95,-0.49,0.74,0.34,11.82,100.0,-52
4759,177.978,-0.28,0.71,-0.39,0.59,0.00,11.82,100.0,-52
4760,178.078,-0.27,0.72,-0.59,0.34,-0.24,11.82,100.0,-52
4761,178.178,-0.27,1.03,-0.98,0.24,-0.20,11.11,100.0,-52
4762,178.278,-0.34,1.49,-1.42,0.34,-0.29,11.08,100.0,-52
4763,178.379,-0.35,1.03,-0.93,0.34,-0.29,11.06,100.0,-52
4764,178.462,-0.31,1.17,-0.24,0.88,0.74,11.75,100.0,-56
4765,178.546,-0.24,0.74,-0.10,0.49,0.54,11.75,100.0,-56
4766,178.630,-0.25,0.35,0.00,0.20,0.29,11.75,100.0,-56
4767,178.713,-0.25,0.69,-0.05,0.00,0.69,11.06,100.0,-56
4768,178.797,-0.32,0.79,0.00,-0.39,0.69,11.06,100.0,-56
4769,178.880,-0.30,0.35,-0.05,-0.24,0.24,11.06,100.0,-56
4770,178.964,-0.27,0.60,0.00,-0.49,0.34,11.75,100.0,-56
4771,179.048,-0.26,0.48,0.00,-0.34,0.34,11.75,100.0,-56
4772,179.131,-0.26,0.48,0.00,-0.34,0.34,11.75,100.0,-56
4773,179.215,-0.32,0.52,0.00,-0.34,0.39,11.06,100.0,-56
4774,179.298,-0.42,0.56,-0.05,-0.39,0.39,11.06,100.0,-56
4775,179.382,-0.42,0.52,0.00,-0.34,0.39,11.06,100.0,-56
4776,179.466,-0.47,0.53,0.00,-0.29,0.44,11.75,100.0,-56
4777,179.549,-0.36,0.60,0.00,-0.34,0.49,11.75,100.0,-56
4778,179.633,-0.36,0.49,0.00,-0.29,0.39,11.75,100.0,-56
4779,179.717,-0.45,0.56,0.00,-0.34,0.44,11.08,100.0,-56
4780,179.800,-0.51,0.49,0.05,-0.29,0.39,11.11,100.0,-56
4781,179.884,-0.55,0.56,0.00,-0.34,0.44,11.13,100.0,-56
4782,179.968,-0.56,0.59,-0.05,-0.44,0.39,11.84,100.0,-53
4783,180.051,-0.49,0.52,0.00,-0.39,0.34,11.87,100.0,-53
4784,180.135,-0.46,0.56,0.00,-0.44,0.34,11.89,100.0,-53
4785,180.218,-0.46,0.57,0.05,-0.49,0.29,11.19,100.0,-53
4786,180.302,-0.52,0.60,0.00,-0.49,0.34,11.19,100.0,-53
4787,180.386,-0.54,0.57,0.00,-0.49,0.29,11.19,100.0,-53
4788,180.469,-0.54,0.57,0.00,-0.49,0.29,11.89,100.0,-54
4789,180.553,-0.51,0.46,0.00,-0.39,0.24,11.89,100.0,-54
4790,180.637,-0.51,0.59,0.00,-0.44,0.39,11.89,100.0,-54
4791,180.720,-0.55,0.56,0.00,-0.44,0.34,11.19,100.0,-54
4792,180.804,-0.55,0.56,0.00,-0.44,0.34,11.19,100.0,-54
4793,180.887,-0.51,0.60,0.00,-0.49,0.34,11.19,100.0,-54
4794,180.988,-0.50,0.57,-0.05,-0.49,0.29,11.87,100.0,-55
4795,181.088,-0.41,0.63,0.00,-0.49,0.39,11.84,100.0,-55
4796,181.188,-0.49,0.53,0.00,-0.44,0.29,11.82,100.0,-55
4797,181.289,-0.49,0.56,0.00,-0.44,0.34,11.10,100.0,-55
4798,181.389,-0.55,0.60,-0.05,-0.49,0.34,11.08,100.0,-55
4799,181.489,-0.51,0.60,0.00,-0.49,0.34,11.06,100.0,-55
4800,181.573,-0.48,0.57,0.00,-0.49,0.29,11.75,100.0,-59
4801,181.656,-0.42,0.52,-0.05,-0.39,0.34,11.75,100.0,-59
4802,181.740,-0.42,0.63,0.00,-0.49,0.39,11.75,100.0,-59
4803,181.824,-0.47,0.53,0.00,-0.44,0.29,11.06,100.0,-59
4804,181.907,-0.57,0.63,0.00,-0.49,0.39,11.06,100.0,-59
4805,181.991,-0.58,0.56,-0.05,-0.44,0.34,11.06,100.0,-59
4806,182.074,-0.58,0.53,0.00,-0.44,0.29,11.75,100.0,-59
4807,182.158,-0.50,0.56,0.00,-0.44,0.34,11.75,100.0,-59
4808,182.242,-0.50,0.53,0.00,-0.44,0.29,11.75,100.0,-59
4809,182.325,-0.53,0.55,0.05,-0.49,0.24,11.08,100.0,-59
4810,182.409,-0.55,0.60,0.00,-0.49,0.34,11.10,100.0,-59
4811,182.493,-0.57,0.56,0.00,-0.44,0.34,11.13,100.0,-59
4812,182.576,-0.55,0.59,0.00,-0.44,0.39,11.84,100.0,-58
4813,182.660,-0.47,0.52,-0.05,-0.39,0.34,11.87,100.0,-58
4814,182.744,-0.47,0.60,0.00,-0.49,0.34,11.89,100.0,-58
4815,182.827,-0.55,0.52,0.00,-0.39,0.34,11.19,100.0,-58
4816,182.911,-0.60,0.57,0.00,-0.49,0.29,11.19,100.0,-58
4817,182.995,-0.60,0.53,0.00,-0.44,0.29,11.19,100.0,-58
4818,183.095,-0.64,0.52,0.00,-0.39,0.34,11.87,100.0,-57
4819,183.195,-0.54,0.49,0.00,-0.39,0.29,11.84,100.0,-57
4820,183.295,-0.54,0.52,-0.05,-0.39,0.34,11.82,100.0,-57
4821,183.396,-0.62,0.56,0.05,-0.44,0.34,11.10,100.0,-57
4822,183.496,-0.61,0.60,0.00,-0.49,0.34,11.08,100.0,-57
4823,183.596,-0.62,0.50,0.00,-0.44,0.24,11.06,100.0,-57
4824,183.680,-0.71,0.60,-0.05,-0.49,0.34,11.75,100.0,-59
4825,183.763,-0.67,0.59,0.00,-0.44,0.39,11.75,100.0,-59
4826,183.847,-0.69,0.59,0.05,-0.44,0.39,11.75,100.0,-59
4827,183.931,-0.69,0.60,0.05,-0.49,0.34,11.06,100.0,-59
4828,184.014,-0.68,0.60,0.00,-0.49,0.34,11.06,100.0,-59
4829,184.098,-0.66,0.56,-0.05,-0.44,0.34,11.06,100.0,-59
4830,184.181,-0.64,0.63,0.00,-0.49,0.39,11.75,100.0,-58
4831,184.265,-0.52,0.60,0.05,-0.49,0.34,11.75,100.0,-58
4832,184.349,-0.52,0.63,0.00,-0.49,0.39,11.75,100.0,-58
4833,184.432,-0.54,0.60,0.00,-0.49,0.34,11.08,100.0,-58
4834,184.516,-0.59,0.60,0.00,-0.49,0.34,11.10,100.0,-58
4835,184.600,-0.59,0.63,0.00,-0.49,0.39,11.13,100.0,-58
4836,184.683,-0.58,0.57,0.00,-0.49,0.29,11.84,100.0,-60
4837,184.767,-0.61,0.49,0.00,-0.39,0.29,11.87,100.0,-60
4838,184.851,-0.61,0.63,-0.05,-0.49,0.39,11.89,100.0,-60
4839,184.934,-0.65,0.57,-0.05,-0.49,0.29,11.19,100.0,-60
4840,185.018,-0.66,0.56,0.00,-0.44,0.34,11.19,100.0,-60
4841,185.101,-0.70,0.53,-0.05,-0.44,0.29,11.19,100.0,-60
4842,185.185,-0.64,0.77,0.29,-0.69,0.20,11.89,100.0,-44
4843,185.269,-0.52,0.74,0.24,-0.69,0.10,11.89,100.0,-44
4844,185.352,-0.57,0.50,0.05,-0.49,0.05,11.89,100.0,-44
4845,185.436,-0.57,0.54,-0.10,-0.49,0.20,11.19,100.0,-44
4846,185.520,-0.66,0.55,0.00,-0.54,0.10,11.19,100.0,-44
4847,185.603,-0.71,0.59,0.05,-0.59,0.00,11.19,100.0,-44
4848,185.704,-0.58,0.96,0.64,-0.20,-0.69,11.87,100.0,-44
4849,185.804,-0.49,0.98,0.69,-0.15,-0.69,11.84,100.0,-44
4850,185.904,-0.43,0.87,0.64,-0.10,-0.59,11.82,100.0,-44
4851,186.004,-0.43,0.62,0.54,-0.24,-0.20,11.10,100.0,-44
4852,186.104,-0.46,0.95,0.59,-0.10,-0.74,11.08,100.0,-44
4853,186.205,-0.47,0.74,0.54,-0.15,-0.49,11.06,100.0,-44
4854,186.288,-0.45,0.91,0.69,-0.10,-0.59,11.75,100.0,-47
4855,186.372,-0.35,1.08,0.74,-0.15,-0.78,11.75,100.0,-47
4856,186.456,-0.29,1.16,0.69,-0.05,-0.93,11.75,100.0,-47
4857,186.539,-0.29,1.23,0.74,0.00,-0.98,11.08,100.0,-47
4858,186.623,-0.26,1.22,0.78,0.00,-0.93,11.10,100.0,-47
4859,186.707,-0.32,1.15,0.74,0.00,-0.88,11.13,100.0,-47
4860,186.790,-0.23,1.04,0.74,0.24,-0.69,11.84,100.0,-47
4861,186.874,-0.11,1.04,0.74,0.24,-0.69,11.87,100.0,-47
4862,186.957,-0.12,0.97,0.74,0.24,-0.59,11.89,100.0,-47
4863,187.041,-0.12,1.00,0.64,0.34,-0.69,11.19,100.0,-47
4864,187.125,-0.18,1.19,0.78,0.34,-0.83,11.19,100.0,-47
4865,187.208,-0.20,1.23,0.78,0.34,-0.88,11.19,100.0,-47
4866,187.292,-0.16,1.00,0.64,0.24,-0.74,11.89,100.0,-47
4867,187.376,-0.06,1.17,0.78,0.24,-0.83,11.89,100.0,-47
4868,187.459,-0.08,1.11,0.69,0.24,-0.83,11.89,100.0,-47
4869,187.543,-0.08,1.14,0.69,0.24,-0.88,11.19,100.0,-47
4870,187.627,-0.11,1.11,0.74,0.29,-0.78,11.19,100.0,-47
4871,187.711,-0.20,0.99,0.59,0.29,-0.74,11.19,100.0,-47
4872,187.794,-0.17,1.08,0.69,0.29,-0.78,11.89,100.0,-48
4873,187.878,-0.11,1.03,0.69,0.34,-0.69,11.89,100.0,-48
4874,187.961,-0.15,1.08,0.74,0.29,-0.74,11.89,100.0,-48
4875,188.045,-0.15,1.16,0.74,0.34,-0.83,11.19,100.0,-48
4876,188.128,-0.18,1.09,0.64,0.29,-0.83,11.19,100.0,-48
4877,188.212,-0.20,1.14,0.64,0.34,-0.88,11.19,100.0,-48
4878,188.312,-0.16,1.11,0.69,0.24,-0.83,11.87,100.0,-45
4879,188.412,-0.10,1.17,0.74,0.24,-0.88,11.84,100.0,-45
4880,188.513,-0.17,1.19,0.74,0.29,-0.88,11.82,100.0,-45
4881,188.613,-0.17,1.28,0.78,0.39,-0.93,11.10,100.0,-45
4882,188.713,-0.18,1.29,0.83,0.44,-0.88,11.08,100.0,-45
4883,188.814,-0.27,1.23,0.78,0.34,-0.88,11.06,100.0,-45
4884,188.897,-0.24,1.00,0.83,-0.10,-0.54,11.75,100.0,-44
4885,188.981,-0.12,1.01,0.88,-0.05,-0.49,11.75,100.0,-44
4886,189.065,-0.09,0.86,0.74,-0.10,-0.44,11.75,100.0,-44
4887,189.148,-0.09,0.91,0.78,-0.15,-0.44,11.06,100.0,-44
4888,189.232,-0.16,0.90,0.78,-0.10,-0.44,11.06,100.0,-44
4889,189.315,-0.11,0.82,0.74,-0.15,-0.34,11.06,100.0,-44
4890,189.399,-0.20,0.75,0.69,-0.05,-0.29,11.75,100.0,-49
4891,189.483,-0.12,0.84,0.78,-0.10,-0.29,11.75,100.0,-49
4892,189.566,-0.13,0.85,0.78,-0.15,-0.29,11.75,100.0,-49
4893,189.650,-0.13,0.82,0.74,-0.10,-0.34,11.08,100.0,-49
4894,189.734,-0.18,0.96,0.83,-0.20,-0.44,11.10,100.0,-49
4895,189.817,-0.18,0.90,0.78,-0.20,-0.39,11.13,100.0,-49
4896,189.901,-0.16,0.84,0.64,-0.10,-0.54,11.84,100.0,-59
4897,189.985,-0.16,0.81,0.64,-0.10,-0.49,11.87,100.0,-59
4898,190.068,-0.15,0.96,0.69,-0.20,-0.64,11.89,100.0,-59
4899,190.152,-0.15,0.91,0.64,-0.15,-0.64,11.19,100.0,-59
4900,190.236,-0.23,0.97,0.69,-0.24,-0.64,11.19,100.0,-59
4901,190.319,-0.29,0.99,0.69,-0.20,-0.69,11.19,100.0,-59
4902,190.419,-0.26,0.58,0.29,-0.49,-0.10,11.87,100.0,-64
4903,190.520,-0.25,0.60,0.34,-0.49,-0.05,11.84,100.0,-64
4904,190.620,-0.27,0.59,0.39,-0.44,-0.05,11.82,100.0,-64
4905,190.720,-0.27,0.61,0.54,-0.29,0.00,11.10,100.0,-64
4906,190.820,-0.27,0.97,0.74,-0.59,0.24,11.08,100.0,-64
4907,190.921,-0.32,1.41,0.74,-1.08,0.54,11.06,100.0,-64
4908,191.004,-0.36,0.61,0.05,-0.15,0.59,11.75,100.0,-71
4909,191.088,-0.38,0.61,0.05,-0.15,0.59,11.75,100.0,-71
4910,191.172,-0.50,0.50,0.05,-0.10,0.49,11.75,100.0,-71
4911,191.255,-0.50,0.56,0.05,-0.15,0.54,11.06,100.0,-71
4912,191.339,-0.57,0.55,0.05,-0.10,0.54,11.06,100.0,-71
4913,191.423,-0.54,0.50,0.05,-0.10,0.49,11.06,100.0,-71
4914,191.506,-0.44,0.56,0.05,-0.15,0.54,11.75,100.0,-64
4915,191.590,-0.36,0.57,0.00,-0.20,0.54,11.75,100.0,-64
4916,191.674,-0.37,0.61,0.05,-0.15,0.59,11.75,100.0,-64
4917,191.757,-0.37,0.59,0.00,-0.05,0.59,11.08,100.0,-64
4918,191.841,-0.42,0.55,0.05,-0.10,0.54,11.10,100.0,-64
4919,191.924,-0.40,0.58,0.10,-0.20,0.54,11.13,100.0,-64
4920,192.008,-0.46,0.56,0.05,-0.15,0.54,11.84,100.0,-65
4921,192.092,-0.36,0.51,0.05,-0.15,0.49,11.87,100.0,-65
4922,192.175,-0.39,0.55,0.05,-0.10,0.54,11.89,100.0,-65
4923,192.259,-0.39,0.56,0.05,-0.15,0.54,11.19,100.0,-65
4924,192.343,-0.50,0.64,0.00,-0.10,0.64,11.19,100.0,-65
4925,192.426,-0.48,0.61,0.05,-0.15,0.59,11.19,100.0,-65
4926,192.510,-0.39,0.55,0.00,-0.10,0.54,11.89,100.0,-70
4927,192.594,-0.34,0.66,0.05,-0.15,0.64,11.89,100.0,-70
4928,192.677,-0.34,0.56,0.05,-0.15,0.54,11.89,100.0,-70
4929,192.761,-0.39,0.50,0.05,-0.10,0.49,11.19,100.0,-70
4930,192.844,-0.38,0.55,0.00,-0.10,0.54,11.19,100.0,-70
4931,192.928,-0.39,0.56,0.05,-0.15,0.54,11.19,100.0,-70
4932,193.028,-0.48,0.56,0.00,-0.15,0.54,11.87,100.0,-70
4933,193.129,-0.41,0.60,0.05,-0.10,0.59,11.84,100.0,-70
4934,193.229,-0.41,0.50,0.05,-0.10,0.49,11.82,100.0,-70
4935,193.329,-0.40,0.56,0.05,-0.15,0.54,11.10,100.0,-70
4936,193.430,-0.40,0.56,0.05,-0.15,0.54,11.08,100.0,-70
4937,193.530,-0.37,0.57,0.10,-0.15,0.54,11.06,100.0,-70
4938,193.613,-0.41,0.56,0.05,-0.15,0.54,11.75,100.0,-70
4939,193.697,-0.36,0.56,0.05,-0.15,0.54,11.75,100.0,-70
4940,193.781,-0.35,0.61,0.05,-0.15,0.59,11.75,100.0,-70
4941,193.864,-0.35,0.60,0.10,-0.10,0.59,11.06,100.0,-70
4942,193.948,-0.40,0.61,0.05,-0.15,0.59,11.06,100.0,-70
4943,194.032,-0.41,0.61,0.05,-0.15,0.59,11.06,100.0,-70
4944,194.115,-0.39,0.56,0.05,-0.15,0.54,11.75,100.0,-71
4945,194.199,-0.30,0.55,0.00,-0.10,0.54,11.75,100.0,-71
4946,194.282,-0.33,0.55,0.05,-0.10,0.54,11.75,100.0,-71
4947,194.366,-0.33,0.57,0.10,-0.15,0.54,11.08,100.0,-71
4948,194.450,-0.34,0.53,0.05,-0.20,0.49,11.10,100.0,-71
4949,194.533,-0.33,0.57,0.10,-0.15,0.54,11.12,100.0,-71
4950,194.617,-0.35,0.50,0.00,-0.10,0.49,11.84,100.0,-70
4951,194.701,-0.27,0.57,0.00,-0.20,0.54,11.87,100.0,-70
4952,194.784,-0.27,0.55,0.05,-0.10,0.54,11.89,100.0,-70
4953,194.868,-0.29,0.61,0.05,-0.15,0.59,11.19,100.0,-70
4954,194.952,-0.32,0.60,0.05,-0.10,0.59,11.19,100.0,-70
4955,195.035,-0.32,0.55,0.05,-0.10,0.54,11.19,100.0,-70
4956,195.119,-0.29,0.58,0.05,-0.20,0.54,11.89,100.0,-65
4957,195.202,-0.25,0.61,0.10,-0.15,0.59,11.89,100.0,-65
4958,195.286,-0.27,0.56,0.00,-0.15,0.54,11.89,100.0,-65
4959,195.370,-0.27,0.58,0.05,-0.20,0.54,11.19,100.0,-65
4960,195.453,-0.35,0.56,0.05,-0.15,0.54,11.19,100.0,-65
4961,195.537,-0.34,0.67,0.00,-0.20,0.64,11.19,100.0,-65
4962,195.637,-0.35,0.55,0.00,-0.10,0.54,11.87,100.0,-79
4963,195.737,-0.31,0.57,0.10,-0.15,0.54,11.84,100.0,-79
4964,195.838,-0.31,0.55,0.05,-0.10,0.54,11.82,100.0,-79
4965,195.938,-0.32,0.55,0.05,-0.10,0.54,11.10,100.0,-79
4966,196.038,-0.41,0.55,0.05,-0.10,0.54,11.08,100.0,-79
4967,196.139,-0.36,0.55,0.05,-0.10,0.54,11.06,100.0,-79
4968,196.222,-0.43,0.51,0.00,-0.15,0.49,11.75,100.0,-71
4969,196.306,-0.39,0.56,0.05,-0.15,0.54,11.75,100.0,-71
4970,196.389,-0.39,0.61,0.05,-0.15,0.59,11.75,100.0,-71
4971,196.473,-0.47,0.55,0.05,-0.10,0.54,11.06,100.0,-71
4972,196.557,-0.49,0.56,0.05,-0.15,0.54,11.06,100.0,-71
4973,196.640,-0.51,0.61,0.05,-0.15,0.59,11.06,100.0,-71
4974,196.724,-0.50,0.55,0.05,-0.10,0.54,11.75,100.0,-60
4975,196.807,-0.49,0.56,0.05,-0.15,0.54,11.75,100.0,-60
4976,196.891,-0.49,0.55,0.00,-0.10,0.54,11.75,100.0,-60
4977,196.974,-0.49,0.60,0.05,-0.10,0.59,11.08,100.0,-60
4978,197.058,-0.53,0.51,0.10,-0.10,0.49,11.10,100.0,-60
4979,197.141,-0.59,0.55,0.00,-0.10,0.54,11.13,100.0,-60
4980,197.225,-0.50,0.64,0.00,-0.10,0.64,11.84,100.0,-56
4981,197.309,-0.49,0.59,0.05,-0.05,0.59,11.87,100.0,-56
4982,197.392,-0.49,0.61,0.05,-0.15,0.59,11.89,100.0,-56
4983,197.476,-0.49,0.61,0.05,-0.15,0.59,11.19,100.0,-56
4984,197.560,-0.47,0.56,0.00,-0.15,0.54,11.19,100.0,-56
4985,197.643,-0.38,0.55,0.05,-0.10,0.54,11.19,100.0,-56
4986,197.727,-0.30,0.56,0.05,-0.15,0.54,11.89,100.0,-61
4987,197.810,-0.28,0.55,0.05,-0.10,0.54,11.89,100.0,-61
4988,197.894,-0.33,0.61,0.05,-0.15,0.59,11.89,100.0,-61
4989,197.978,-0.33,0.56,0.00,-0.15,0.54,11.19,100.0,-61
4990,198.061,-0.44,0.64,0.00,-0.10,0.64,11.19,100.0,-61
4991,198.145,-0.50,0.53,0.05,-0.20,0.49,11.19,100.0,-61
4992,198.245,-0.47,0.55,0.05,-0.10,0.54,11.87,100.0,-63
4993,198.345,-0.43,0.55,0.05,-0.10,0.54,11.84,100.0,-63
4994,198.445,-0.40,0.62,0.05,-0.20,0.59,11.82,100.0,-63
4995,198.545,-0.40,0.50,0.05,-0.10,0.49,11.11,100.0,-63
4996,198.645,-0.38,0.55,0.00,-0.10,0.54,11.08,100.0,-63
4997,198.745,-0.43,0.56,0.05,-0.15,0.54,11.06,100.0,-63
4998,198.829,-0.42,0.56,0.05,-0.15,0.54,11.75,100.0,-64
4999,198.913,-0.36,0.56,0.05,-0.15,0.54,11.75,100.0,-64
5000,198.997,-0.34,0.60,0.05,-0.10,0.59,11.75,100.0,-64
5001,199.081,-0.34,0.62,0.05,-0.20,0.59,11.08,100.0,-64
5002,199.165,-0.35,0.55,0.00,-0.10,0.54,11.10,100.0,-64
5003,199.249,-0.34,0.55,0.00,-0.10,0.54,11.13,100.0,-64
5004,199.332,-0.40,0.55,0.05,-0.10,0.54,11.84,100.0,-66
5005,199.415,-0.30,0.56,0.05,-0.15,0.54,11.87,100.0,-66
5006,199.499,-0.30,0.61,0.05,-0.15,0.59,11.89,100.0,-66
5007,199.582,-0.30,0.47,0.05,-0.15,0.44,11.19,100.0,-66
5008,199.666,-0.31,0.55,0.05,-0.10,0.54,11.19,100.0,-66
5009,199.749,-0.36,0.45,0.05,-0.10,0.44,11.19,100.0,-66
5010,199.833,-0.29,0.56,0.05,-0.15,0.54,11.89,100.0,-68
5011,199.917,-0.23,0.55,0.05,-0.10,0.54,11.89,100.0,-68
5012,200.001,-0.30,0.56,0.05,-0.15,0.54,11.89,100.0,-68
5013,200.085,-0.30,0.61,0.05,-0.15,0.59,11.19,100.0,-68
5014,200.168,-0.37,0.57,0.10,-0.15,0.54,11.19,100.0,-68
5015,200.252,-0.35,0.61,0.10,-0.15,0.59,11.19,100.0,-68
5016,200.336,-0.29,0.55,0.00,-0.10,0.54,11.89,100.0,-67
5017,200.419,-0.17,0.50,0.00,-0.10,0.49,11.89,100.0,-67
5018,200.503,-0.17,0.56,0.05,-0.15,0.54,11.89,100.0,-67
5019,200.586,-0.19,0.56,0.05,-0.15,0.54,11.19,100.0,-67
5020,200.669,-0.21,0.50,0.05,-0.05,0.49,11.19,100.0,-67
5021,200.753,-0.19,0.56,0.05,-0.15,0.54,11.19,100.0,-67
5022,200.853,-0.25,0.50,0.05,-0.10,0.49,11.87,100.0,-63
5023,200.954,-0.20,0.61,0.05,-0.15,0.59,11.85,100.0,-63
5024,201.054,-0.25,0.56,0.10,-0.10,0.54,11.82,100.0,-63
5025,201.155,-0.25,0.51,0.05,-0.15,0.49,11.10,100.0,-63
5026,201.255,-0.34,0.60,0.00,-0.10,0.59,11.08,100.0,-63
5027,201.356,-0.26,0.66,0.05,-0.15,0.64,11.06,100.0,-63
5028,201.439,-0.29,0.56,0.00,-0.15,0.54,11.75,100.0,-60
5029,201.523,-0.20,0.61,0.05,-0.15,0.59,11.75,100.0,-60
5030,201.607,-0.20,0.61,0.10,-0.15,0.59,11.75,100.0,-60
5031,201.690,-0.24,0.50,0.05,-0.10,0.49,11.08,100.0,-60
5032,201.774,-0.29,0.55,0.00,-0.10,0.54,11.10,100.0,-60
5033,201.857,-0.28,0.56,0.05,-0.15,0.54,11.13,100.0,-60
5034,201.941,-0.26,0.56,0.00,-0.15,0.54,11.84,100.0,-56
5035,202.025,-0.25,0.60,0.05,-0.10,0.59,11.87,100.0,-56
5036,202.108,-0.25,0.61,0.05,-0.15,0.59,11.89,100.0,-56
5037,202.192,-0.34,0.60,0.05,-0.10,0.59,11.19,100.0,-56
5038,202.276,-0.25,0.61,0.05,-0.15,0.59,11.19,100.0,-56
5039,202.359,-0.26,0.60,0.05,-0.10,0.59,11.19,100.0,-56
5040,202.443,-0.28,0.59,0.05,-0.24,0.54,11.89,100.0,-52
5041,202.527,-0.17,0.55,0.05,-0.10,0.54,11.89,100.0,-52
5042,202.610,-0.22,0.61,0.05,-0.15,0.59,11.89,100.0,-52
5043,202.694,-0.22,0.56,0.05,-0.15,0.54,11.19,100.0,-52
5044,202.777,-0.30,0.51,0.05,-0.15,0.49,11.19,100.0,-52
5045,202.861,-0.29,0.60,0.05,-0.10,0.59,11.19,100.0,-52
5046,202.945,-0.24,0.55,0.05,-0.10,0.54,11.89,100.0,-60
5047,203.028,-0.18,0.55,0.05,-0.10,0.54,11.89,100.0,-60
5048,203.112,-0.14,0.60,0.00,-0.10,0.59,11.89,100.0,-60
5049,203.196,-0.14,0.55,0.00,-0.10,0.54,11.19,100.0,-60
5050,203.279,-0.18,0.56,0.05,-0.15,0.54,11.19,100.0,-60
5051,203.363,-0.16,0.62,0.05,-0.20,0.59,11.19,100.0,-60
5052,203.463,-0.11,0.55,0.05,-0.10,0.54,11.87,100.0,-56
5053,203.564,-0.06,0.51,0.05,-0.15,0.49,11.84,100.0,-56
5054,203.664,-0.07,0.60,0.00,-0.10,0.59,11.82,100.0,-56
5055,203.764,-0.07,0.66,0.10,-0.15,0.64,11.10,100.0,-56
5056,203.864,-0.12,0.63,0.10,-0.20,0.59,11.08,100.0,-56
5057,203.965,-0.15,0.56,0.05,-0.15,0.54,11.06,100.0,-56
5058,204.048,-0.14,0.51,0.05,-0.15,0.49,11.75,100.0,-53
5059,204.132,-0.08,0.55,0.05,-0.10,0.54,11.75,100.0,-53
5060,204.215,-0.08,0.61,0.05,-0.15,0.59,11.75,100.0,-53
