sid,time,altitude,acceleration,acceleration-X,acceleration-Y,acceleration-Z,SPS,Reliability,RSSI
9144,-0.040,0.00,0.90,0.83,0.15,-0.29,0.00,100.0,-56
9145,0.061,-0.03,0.95,0.88,0.20,-0.29,0.00,100.0,-56
9146,0.162,-0.03,0.97,0.93,0.10,-0.24,0.00,100.0,-56
9147,0.263,-0.03,0.90,0.83,0.15,-0.29,0.00,100.0,-56
9148,0.363,-0.05,0.93,0.88,0.10,-0.29,0.00,100.0,-56
9149,0.464,-0.05,1.00,0.93,0.15,-0.34,0.00,100.0,-56
9150,0.565,-0.01,0.93,0.88,0.15,-0.24,9.90,100.0,-57
9151,0.649,-0.07,0.84,0.78,0.20,-0.24,9.46,100.0,-57
9152,0.732,-0.07,0.94,0.88,0.15,-0.29,9.05,100.0,-57
9153,0.816,-0.07,0.90,0.83,0.15,-0.29,8.67,100.0,-57
9154,0.900,-0.08,0.93,0.88,0.15,-0.24,8.33,100.0,-57
9155,0.983,-0.08,0.94,0.88,0.15,-0.29,8.01,100.0,-57
9156,1.067,-0.03,0.94,0.88,0.15,-0.29,10.84,100.0,-55
9157,1.151,-0.06,0.93,0.88,0.15,-0.24,10.56,100.0,-55
9158,1.235,-0.08,0.93,0.88,0.15,-0.24,10.31,100.0,-55
9159,1.319,-0.08,0.90,0.83,0.15,-0.29,10.06,100.0,-55
9160,1.402,-0.08,0.91,0.83,0.15,-0.34,9.82,100.0,-55
9161,1.486,-0.14,0.93,0.88,0.10,-0.29,9.60,100.0,-55
9162,1.570,-0.10,0.89,0.83,0.10,-0.29,11.18,100.0,-54
9163,1.654,-0.13,0.88,0.83,0.15,-0.24,10.98,100.0,-54
9164,1.738,-0.11,0.88,0.83,0.15,-0.24,10.79,100.0,-54
9165,1.821,-0.11,0.90,0.83,0.20,-0.29,10.61,100.0,-54
9166,1.905,-0.11,0.90,0.83,0.15,-0.29,10.44,100.0,-54
9167,1.989,-0.13,0.94,0.88,0.20,-0.24,10.27,100.0,-54
9168,2.073,-0.11,0.92,0.83,0.20,-0.34,11.36,100.0,-57
9169,2.173,-0.13,0.98,0.88,0.15,-0.39,11.20,100.0,-57
9170,2.274,-0.17,1.00,0.93,0.15,-0.34,11.06,100.0,-57
9171,2.375,-0.17,0.90,0.83,0.20,-0.29,10.91,100.0,-57
9172,2.475,-0.18,0.96,0.88,0.15,-0.34,10.77,100.0,-57
9173,2.575,-0.12,0.95,0.93,0.05,-0.20,10.64,100.0,-57
9174,2.676,-0.07,0.90,0.83,0.15,-0.29,11.05,100.0,-58
9175,2.760,-0.15,0.88,0.83,0.20,-0.20,10.93,100.0,-58
9176,2.843,-0.18,0.96,0.88,0.15,-0.34,10.82,100.0,-58
9177,2.926,-0.18,0.88,0.83,0.15,-0.24,10.71,100.0,-58
9178,3.010,-0.26,0.84,0.78,0.20,-0.24,10.60,100.0,-58
9179,3.094,-0.27,0.88,0.83,0.20,-0.20,10.49,100.0,-58
9180,3.177,-0.16,0.98,0.88,0.15,-0.39,11.19,100.0,-59
9181,3.261,-0.12,0.90,0.83,0.15,-0.29,11.09,100.0,-59
9182,3.344,-0.12,0.93,0.88,0.15,-0.24,10.99,100.0,-59
9183,3.428,-0.12,0.95,0.88,0.10,-0.34,10.90,100.0,-59
9184,3.512,-0.13,0.88,0.83,0.15,-0.24,10.81,100.0,-59
9185,3.595,-0.17,0.94,0.88,0.15,-0.29,10.71,100.0,-59
9186,3.679,-0.09,0.93,0.88,0.15,-0.24,11.29,100.0,-54
9187,3.762,-0.11,0.97,0.88,0.20,-0.34,11.21,100.0,-54
9188,3.846,-0.11,0.94,0.83,0.20,-0.39,11.12,100.0,-54
9189,3.929,-0.11,0.93,0.88,0.15,-0.24,11.04,100.0,-54
9190,4.013,-0.15,0.94,0.88,0.15,-0.29,10.95,100.0,-54
9191,4.096,-0.08,0.92,0.88,0.10,-0.24,10.87,100.0,-54
9192,4.180,-0.07,0.91,0.83,0.15,-0.34,11.37,100.0,-59
9193,4.281,-0.12,0.97,0.93,0.15,-0.24,11.30,100.0,-59
9194,4.381,-0.14,0.95,0.88,0.20,-0.29,11.22,100.0,-59
9195,4.482,-0.14,0.91,0.83,0.15,-0.34,11.15,100.0,-59
9196,4.583,-0.15,0.94,0.88,0.15,-0.29,11.07,100.0,-59
9197,4.683,-0.12,0.92,0.88,0.10,-0.24,11.00,100.0,-59
9198,4.784,-0.02,0.92,0.88,0.10,-0.24,11.19,100.0,-58
9199,4.868,-0.06,0.97,0.93,0.15,-0.24,11.13,100.0,-58
9200,4.951,-0.05,0.89,0.83,0.20,-0.24,11.06,100.0,-58
9201,5.035,-0.05,1.00,0.93,0.15,-0.34,11.00,100.0,-58
9202,5.119,-0.08,0.88,0.83,0.15,-0.24,10.93,100.0,-58
9203,5.202,-0.09,0.94,0.88,0.20,-0.24,10.87,100.0,-58
9204,5.286,0.03,0.88,0.83,0.15,-0.24,11.26,100.0,-59
9205,5.370,-0.07,0.94,0.88,0.20,-0.24,11.20,100.0,-59
9206,5.453,-0.09,0.92,0.83,0.20,-0.34,11.14,100.0,-59
9207,5.537,-0.09,0.94,0.88,0.15,-0.29,11.09,100.0,-59
9208,5.621,-0.10,0.93,0.88,0.10,-0.29,11.03,100.0,-59
9209,5.704,-0.06,0.88,0.83,0.15,-0.24,10.97,100.0,-59
9210,5.788,-0.09,0.96,0.88,0.15,-0.34,11.32,100.0,-60
9211,5.872,-0.07,0.90,0.83,0.15,-0.29,11.27,100.0,-60
9212,5.956,-0.10,0.90,0.83,0.15,-0.29,11.21,100.0,-60
9213,6.040,-0.10,0.94,0.88,0.20,-0.24,11.16,100.0,-60
9214,6.123,-0.10,0.95,0.88,0.20,-0.29,11.11,100.0,-60
9215,6.207,-0.08,0.94,0.88,0.15,-0.29,11.05,100.0,-60
9216,6.291,-0.08,1.00,0.93,0.10,-0.34,11.37,100.0,-57
9217,6.375,-0.05,0.95,0.88,0.20,-0.29,11.32,100.0,-57
9218,6.458,0.00,0.94,0.88,0.20,-0.24,11.27,100.0,-57
9219,6.542,0.00,0.88,0.83,0.15,-0.24,11.22,100.0,-57
9220,6.626,-0.03,1.00,0.93,0.15,-0.34,11.17,100.0,-57
9221,6.709,-0.07,0.90,0.83,0.15,-0.29,11.12,100.0,-57
9222,6.793,-0.05,0.97,0.93,0.10,-0.24,11.41,100.0,-56
9223,6.893,-0.12,0.93,0.88,0.15,-0.24,11.37,100.0,-56
9224,6.994,-0.08,0.94,0.88,0.20,-0.24,11.32,100.0,-56
9225,7.094,-0.08,0.95,0.88,0.20,-0.29,11.27,100.0,-56
9226,7.194,-0.11,0.90,0.83,0.20,-0.29,11.23,100.0,-56
9227,7.295,-0.08,0.90,0.83,0.15,-0.29,11.18,100.0,-56
9228,7.395,-0.02,0.93,0.88,0.15,-0.24,11.30,100.0,-56
9229,7.479,-0.03,0.94,0.88,0.15,-0.29,11.25,100.0,-56
9230,7.562,-0.08,0.95,0.88,0.20,-0.29,11.21,100.0,-56
9231,7.646,-0.08,0.93,0.88,0.15,-0.24,11.17,100.0,-56
9232,7.730,-0.06,0.88,0.83,0.15,-0.24,11.13,100.0,-56
9233,7.813,-0.07,0.91,0.83,0.15,-0.34,11.08,100.0,-56
9234,7.897,-0.04,0.93,0.88,0.15,-0.24,11.34,100.0,-56
9235,7.981,-0.08,0.87,0.83,0.10,-0.24,11.30,100.0,-56
9236,8.065,-0.06,0.90,0.83,0.20,-0.29,11.26,100.0,-56
9237,8.149,-0.06,0.97,0.93,0.15,-0.24,11.22,100.0,-56
9238,8.232,-0.12,0.94,0.88,0.15,-0.29,11.18,100.0,-56
9239,8.316,-0.01,0.92,0.88,0.10,-0.24,11.14,100.0,-56
9240,8.400,0.06,0.89,0.83,0.20,-0.24,11.37,100.0,-56
9241,8.484,0.05,0.88,0.83,0.15,-0.24,11.34,100.0,-56
9242,8.567,-0.01,0.90,0.83,0.15,-0.29,11.30,100.0,-56
9243,8.651,-0.01,0.94,0.88,0.15,-0.29,11.26,100.0,-56
9244,8.735,-0.13,0.89,0.83,0.20,-0.24,11.26,100.0,-56
9245,8.818,-0.12,0.94,0.88,0.15,-0.29,11.26,100.0,-56
9246,8.902,-0.08,0.90,0.83,0.15,-0.29,11.52,100.0,-57
9247,9.002,-0.12,0.86,0.78,0.20,-0.29,11.52,100.0,-57
9248,9.103,-0.10,0.99,0.93,0.15,-0.29,11.52,100.0,-57
9249,9.203,-0.10,0.99,0.93,0.15,-0.29,11.40,100.0,-57
9250,9.303,-0.07,0.97,0.93,0.15,-0.24,11.40,100.0,-57
9251,9.404,-0.06,0.94,0.88,0.15,-0.29,11.40,100.0,-57
9252,9.504,-0.04,0.94,0.88,0.15,-0.29,11.52,100.0,-56
9253,9.588,-0.11,0.97,0.93,0.10,-0.24,11.52,100.0,-56
9254,9.671,-0.08,0.92,0.83,0.20,-0.34,11.52,100.0,-56
9255,9.755,-0.08,0.93,0.88,0.15,-0.24,11.26,100.0,-56
9256,9.839,-0.11,0.97,0.88,0.20,-0.34,11.26,100.0,-56
9257,9.922,-0.13,0.95,0.88,0.20,-0.29,11.26,100.0,-56
9258,10.006,-0.04,0.91,0.83,0.15,-0.34,11.52,100.0,-56
9259,10.090,-0.06,0.94,0.88,0.15,-0.29,11.52,100.0,-56
9260,10.174,-0.02,0.92,0.88,0.10,-0.24,11.52,100.0,-56
9261,10.258,-0.02,0.94,0.88,0.15,-0.29,11.26,100.0,-56
9262,10.341,-0.05,0.86,0.78,0.20,-0.29,11.26,100.0,-56
9263,10.425,-0.02,0.90,0.83,0.15,-0.29,11.26,100.0,-56
9264,10.509,-0.01,0.88,0.83,0.15,-0.24,11.52,100.0,-57
9265,10.593,0.06,0.93,0.88,0.15,-0.24,11.52,100.0,-57
9266,10.676,0.04,0.96,0.93,0.15,-0.20,11.52,100.0,-57
9267,10.760,0.04,0.93,0.88,0.15,-0.24,11.27,100.0,-57
9268,10.844,0.00,0.92,0.83,0.20,-0.34,11.27,100.0,-57
9269,10.927,0.02,0.91,0.83,0.15,-0.34,11.27,100.0,-57
9270,11.011,0.04,0.94,0.88,0.15,-0.29,11.52,100.0,-57
9271,11.095,-0.02,0.99,0.93,0.15,-0.29,11.52,100.0,-57
9272,11.178,-0.05,0.93,0.88,0.15,-0.24,11.52,100.0,-57
9273,11.262,-0.05,0.90,0.83,0.20,-0.29,11.40,100.0,-57
9274,11.346,-0.07,0.93,0.88,0.15,-0.24,11.40,100.0,-57
9275,11.429,-0.08,0.94,0.88,0.15,-0.29,11.40,100.0,-57
9276,11.513,-0.03,0.93,0.88,0.15,-0.24,11.65,100.0,-57
9277,11.613,-0.06,0.97,0.93,0.10,-0.24,11.65,100.0,-57
9278,11.714,-0.13,0.95,0.88,0.20,-0.29,11.65,100.0,-57
9279,11.814,-0.13,0.97,0.88,0.20,-0.34,11.40,100.0,-57
9280,11.914,-0.12,0.93,0.88,0.10,-0.29,11.40,100.0,-57
9281,12.015,-0.09,0.90,0.83,0.15,-0.29,11.40,100.0,-57
9282,12.115,0.00,0.93,0.83,0.15,-0.39,11.52,100.0,-56
9283,12.199,-0.09,0.95,0.88,0.20,-0.29,11.52,100.0,-56
9284,12.283,-0.04,0.93,0.88,0.15,-0.24,11.52,100.0,-56
9285,12.367,-0.04,0.92,0.88,0.20,-0.20,11.27,100.0,-56
9286,12.450,-0.08,0.93,0.88,0.15,-0.24,11.27,100.0,-56
9287,12.534,-0.12,0.92,0.88,0.10,-0.24,11.27,100.0,-56
9288,12.618,-0.06,0.88,0.83,0.15,-0.24,11.52,100.0,-57
9289,12.702,-0.17,0.92,0.83,0.20,-0.34,11.52,100.0,-57
9290,12.785,-0.11,0.94,0.88,0.15,-0.29,11.52,100.0,-57
9291,12.869,-0.11,0.90,0.83,0.15,-0.29,11.26,100.0,-57
9292,12.953,-0.09,0.97,0.93,0.10,-0.24,11.26,100.0,-57
9293,13.036,-0.08,0.94,0.88,0.15,-0.29,11.26,100.0,-57
9294,13.120,-0.02,0.98,0.93,0.10,-0.29,11.52,100.0,-57
9295,13.204,-0.07,0.88,0.83,0.15,-0.24,11.52,100.0,-57
9296,13.287,-0.08,0.94,0.88,0.15,-0.29,11.52,100.0,-57
9297,13.371,-0.08,0.92,0.88,0.20,-0.20,11.40,100.0,-57
9298,13.455,-0.17,0.92,0.83,0.20,-0.34,11.40,100.0,-57
9299,13.538,-0.17,0.91,0.83,0.15,-0.34,11.40,100.0,-57
9300,13.622,-0.07,0.94,0.88,0.15,-0.29,11.65,100.0,-56
9301,13.722,-0.09,0.90,0.83,0.15,-0.29,11.65,100.0,-56
9302,13.823,-0.05,0.95,0.88,0.20,-0.29,11.65,100.0,-56
9303,13.923,-0.05,0.88,0.83,0.20,-0.20,11.40,100.0,-56
9304,14.023,-0.06,0.92,0.88,0.20,-0.20,11.40,100.0,-56
9305,14.124,-0.07,0.89,0.83,0.20,-0.24,11.40,100.0,-56
9306,14.224,0.01,0.87,0.83,0.15,-0.20,11.52,100.0,-56
9307,14.308,-0.06,0.96,0.88,0.15,-0.34,11.52,100.0,-56
9308,14.392,-0.11,0.97,0.88,0.20,-0.34,11.52,100.0,-56
9309,14.476,-0.11,0.93,0.88,0.15,-0.24,11.27,100.0,-56
9310,14.559,-0.07,0.98,0.93,0.10,-0.29,11.27,100.0,-56
9311,14.643,-0.07,0.94,0.88,0.15,-0.29,11.27,100.0,-56
9312,14.727,-0.03,0.88,0.83,0.15,-0.24,11.52,100.0,-57
9313,14.811,-0.05,0.94,0.88,0.15,-0.29,11.52,100.0,-57
9314,14.894,-0.12,0.92,0.88,0.10,-0.24,11.52,100.0,-57
9315,14.978,-0.12,0.99,0.93,0.15,-0.29,11.27,100.0,-57
9316,15.062,-0.18,0.94,0.88,0.15,-0.29,11.27,100.0,-57
9317,15.145,-0.13,1.02,0.98,0.15,-0.24,11.27,100.0,-57
9318,15.229,-0.12,0.93,0.88,0.15,-0.24,11.52,100.0,-57
9319,15.313,-0.23,0.92,0.83,0.20,-0.34,11.52,100.0,-57
9320,15.396,-0.22,0.94,0.88,0.20,-0.24,11.52,100.0,-57
9321,15.480,-0.22,0.88,0.83,0.15,-0.24,11.27,100.0,-57
9322,15.564,-0.21,0.96,0.88,0.15,-0.34,11.27,100.0,-57
9323,15.647,-0.11,0.90,0.83,0.15,-0.29,11.27,100.0,-57
9324,15.731,-0.05,0.91,0.83,0.15,-0.34,11.52,100.0,-55
9325,15.831,-0.09,0.93,0.88,0.15,-0.24,11.52,100.0,-55
9326,15.932,-0.17,0.92,0.88,0.10,-0.24,11.52,100.0,-55
9327,16.032,-0.17,0.91,0.83,0.15,-0.34,11.40,100.0,-55
9328,16.132,-0.16,0.96,0.88,0.15,-0.34,11.40,100.0,-55
9329,16.233,-0.09,0.95,0.88,0.20,-0.29,11.40,100.0,-55
9330,16.333,-0.01,0.87,0.83,0.15,-0.20,11.52,100.0,-55
9331,16.417,-0.12,0.98,0.88,0.15,-0.39,11.52,100.0,-55
9332,16.500,-0.16,0.90,0.83,0.20,-0.29,11.52,100.0,-55
9333,16.584,-0.16,0.97,0.93,0.15,-0.24,11.27,100.0,-55
9334,16.668,-0.13,0.84,0.78,0.20,-0.24,11.27,100.0,-55
9335,16.751,-0.15,0.96,0.88,0.15,-0.34,11.27,100.0,-55
9336,16.835,-0.01,0.94,0.88,0.15,-0.29,11.52,100.0,-55
9337,16.919,-0.05,0.90,0.83,0.15,-0.29,11.52,100.0,-55
9338,17.002,-0.04,0.92,0.88,0.10,-0.24,11.52,100.0,-55
9339,17.086,-0.04,0.94,0.88,0.15,-0.29,11.27,100.0,-55
9340,17.170,-0.10,0.93,0.88,0.15,-0.24,11.27,100.0,-55
9341,17.253,-0.06,0.93,0.88,0.10,-0.29,11.27,100.0,-55
9342,17.337,-0.02,3.45,3.43,0.20,-0.29,11.52,100.0,-66
9343,17.421,1.12,3.35,3.33,0.24,-0.20,11.52,100.0,-66
9344,17.504,2.05,3.40,3.38,0.24,-0.24,11.52,100.0,-66
9345,17.588,2.05,3.35,3.33,0.24,-0.24,11.27,100.0,-66
9346,17.672,2.84,3.30,3.28,0.24,-0.24,11.27,100.0,-66
9347,17.755,3.60,3.25,3.23,0.29,-0.20,11.27,100.0,-66
9348,17.839,4.38,2.96,2.94,0.24,-0.24,11.52,100.0,-75
9349,17.923,7.68,3.06,3.04,0.24,-0.24,11.52,100.0,-75
9350,18.007,10.44,2.96,2.94,0.24,-0.24,11.52,100.0,-75
9351,18.090,10.44,2.96,2.94,0.20,-0.24,11.40,100.0,-75
9352,18.174,12.68,3.01,2.99,0.24,-0.24,11.40,100.0,-75
9353,18.258,14.58,3.06,3.04,0.29,-0.24,11.40,100.0,-75
9354,18.342,16.23,2.66,2.65,0.24,-0.20,11.65,100.0,-82
9355,18.442,21.57,2.61,2.60,0.20,-0.20,11.65,100.0,-82
9356,18.543,25.89,2.62,2.60,0.24,-0.24,11.65,100.0,-82
9357,18.643,25.89,2.52,2.50,0.20,-0.24,11.40,100.0,-82
9358,18.743,29.40,2.68,2.65,0.24,-0.34,11.40,100.0,-82
9359,18.844,32.33,2.66,2.65,0.20,-0.20,11.40,100.0,-82
9360,18.944,35.04,0.58,-0.49,0.10,-0.29,11.52,100.0,-87
9361,19.028,42.04,0.62,-0.54,0.20,-0.24,11.52,100.0,-87
9362,19.111,47.49,0.61,-0.54,0.20,-0.20,11.52,100.0,-87
9363,19.195,47.49,0.72,-0.59,0.24,-0.34,11.27,100.0,-87
9364,19.279,51.72,0.61,-0.54,0.20,-0.20,11.27,100.0,-87
9365,19.362,55.22,0.58,-0.49,0.20,-0.24,11.27,100.0,-87
9366,19.446,58.08,0.55,-0.44,0.15,-0.29,11.52,100.0,-88
9367,19.530,63.14,0.50,-0.39,0.20,-0.24,11.52,100.0,-88
9368,19.614,67.22,0.52,-0.44,0.15,-0.24,11.52,100.0,-88
9369,19.698,67.22,0.51,-0.39,0.15,-0.29,11.27,100.0,-88
9370,19.781,70.35,0.47,-0.34,0.15,-0.29,11.27,100.0,-88
9371,19.865,72.94,0.53,-0.39,0.20,-0.29,11.27,100.0,-88
9372,19.949,75.10,0.38,-0.20,0.15,-0.29,11.52,100.0,-84
9373,20.033,79.29,0.46,-0.29,0.20,-0.29,11.52,100.0,-84
9374,20.116,82.51,0.40,-0.15,0.15,-0.34,11.52,100.0,-84
9375,20.200,82.51,0.41,-0.24,0.15,-0.29,11.27,100.0,-84
9376,20.284,85.11,0.35,-0.15,0.20,-0.24,11.27,100.0,-84
9377,20.367,87.30,0.41,-0.24,0.15,-0.29,11.27,100.0,-84
9378,20.451,89.05,0.30,-0.15,0.10,-0.24,11.52,100.0,-86
9379,20.551,92.51,0.46,-0.15,0.20,-0.39,11.52,100.0,-86
9380,20.652,95.20,0.29,-0.15,0.15,-0.20,11.52,100.0,-86
9381,20.752,95.20,0.41,-0.10,0.20,-0.34,11.40,100.0,-86
9382,20.852,97.31,0.29,-0.05,0.15,-0.24,11.40,100.0,-86
9383,20.953,99.12,0.40,-0.20,0.20,-0.29,11.40,100.0,-86
9384,21.053,100.60,0.40,-0.05,0.20,-0.34,11.52,100.0,-90
9385,21.137,103.34,0.36,-0.05,0.20,-0.29,11.52,100.0,-90
9386,21.220,105.52,0.33,-0.05,0.15,-0.29,11.52,100.0,-90
9387,21.304,105.52,0.31,-0.15,0.20,-0.20,11.27,100.0,-90
9388,21.388,107.16,0.33,-0.10,0.20,-0.24,11.27,100.0,-90
9389,21.471,108.54,0.29,-0.05,0.15,-0.24,11.27,100.0,-90
9390,21.555,109.58,0.26,0.00,0.10,-0.24,11.52,100.0,-88
9391,21.639,111.55,0.33,-0.05,0.15,-0.29,11.52,100.0,-88
9392,21.723,111.55,0.29,0.00,0.15,-0.24,11.52,100.0,-88
9393,21.806,113.06,0.33,-0.10,0.20,-0.24,11.27,100.0,-88
9394,21.890,114.28,0.33,0.00,0.15,-0.29,11.27,100.0,-88
9395,21.974,115.17,0.29,-0.05,0.15,-0.24,11.27,100.0,-88
9396,22.058,116.00,0.29,-0.05,0.15,-0.24,11.52,100.0,-81
9397,22.142,117.15,0.33,-0.05,0.15,-0.29,11.52,100.0,-81
9398,22.225,118.08,0.36,-0.05,0.20,-0.29,11.52,100.0,-81
9399,22.309,118.08,0.29,-0.05,0.15,-0.24,11.27,100.0,-81
9400,22.393,118.81,0.33,0.00,0.15,-0.29,11.27,100.0,-81
9401,22.476,119.36,0.33,0.00,0.15,-0.29,11.27,100.0,-81
9402,22.560,119.80,0.27,-0.05,0.10,-0.24,11.52,100.0,-79
9403,22.644,120.23,0.35,-0.05,0.05,-0.34,11.52,100.0,-79
9404,22.727,120.62,0.37,-0.10,0.10,-0.34,11.52,100.0,-79
9405,22.811,120.62,0.36,-0.05,0.10,-0.34,11.40,100.0,-79
9406,22.895,120.97,0.31,-0.05,0.10,-0.29,11.40,100.0,-79
9407,22.978,121.15,0.35,0.00,0.05,-0.34,11.40,100.0,-79
9408,23.062,121.34,0.42,-0.15,0.05,-0.39,11.65,100.0,-89
9409,23.162,121.01,0.47,-0.15,0.05,-0.44,11.65,100.0,-89
9410,23.263,120.79,0.42,-0.15,0.05,-0.39,11.65,100.0,-89
9411,23.363,120.79,0.43,-0.15,0.10,-0.39,11.40,100.0,-89
9412,23.463,120.72,0.41,-0.10,0.05,-0.39,11.40,100.0,-89
9413,23.564,120.63,0.41,-0.10,0.05,-0.39,11.40,100.0,-89
9414,23.664,120.42,0.33,-0.05,0.15,-0.29,11.52,100.0,-77
9415,23.748,119.27,0.33,-0.10,0.20,-0.24,11.52,100.0,-77
9416,23.832,118.37,0.37,-0.10,0.20,-0.29,11.52,100.0,-77
9417,23.916,118.37,0.32,-0.10,0.10,-0.29,11.27,100.0,-77
9418,23.999,117.54,0.33,-0.05,0.15,-0.29,11.27,100.0,-77
9419,24.083,116.86,0.30,-0.10,0.15,-0.24,11.27,100.0,-77
9420,24.167,116.36,2.83,-0.20,1.32,2.50,11.52,100.0,-82
9421,24.251,116.15,2.34,-0.20,0.59,2.25,11.52,100.0,-82
9422,24.334,116.33,1.69,-0.49,-0.54,1.52,11.52,100.0,-82
9423,24.418,116.33,3.13,-2.99,-0.05,0.93,11.27,100.0,-82
9424,24.502,115.47,0.88,-0.69,-0.44,0.34,11.27,100.0,-82
9425,24.585,114.51,0.80,-0.69,-0.39,0.10,11.27,100.0,-82
9426,24.669,113.65,1.76,-0.54,1.57,-0.59,11.52,100.0,-76
9427,24.753,113.85,2.14,-0.74,1.42,-1.42,11.52,100.0,-76
9428,24.836,112.96,2.57,-0.74,0.98,-2.25,11.52,100.0,-76
9429,24.920,112.96,2.93,-0.34,0.34,-2.89,11.40,100.0,-76
9430,25.004,111.05,2.61,-0.24,-0.10,-2.60,11.40,100.0,-76
9431,25.087,110.72,2.33,-0.24,-0.29,-2.30,11.40,100.0,-76
9432,25.171,109.41,1.91,-0.59,1.81,0.00,11.65,100.0,-82
9433,25.271,104.77,1.88,-0.44,1.81,-0.24,11.65,100.0,-82
9434,25.372,104.77,1.87,-0.29,1.72,-0.69,11.65,100.0,-82
9435,25.473,102.69,1.85,-0.29,1.57,-0.93,11.40,100.0,-82
9436,25.573,101.23,1.88,-0.29,1.47,-1.13,11.40,100.0,-82
9437,25.674,100.00,1.88,-0.15,1.32,-1.32,11.40,100.0,-82
9438,25.774,98.98,1.76,-1.62,0.69,0.05,11.52,100.0,-82
9439,25.858,97.08,0.90,-0.44,-0.78,0.10,11.52,100.0,-82
9440,25.941,95.33,0.75,-0.64,-0.20,0.34,11.52,100.0,-82
9441,26.025,95.33,1.19,-1.13,0.34,-0.15,11.26,100.0,-82
9442,26.109,92.69,1.12,-0.93,0.29,-0.54,11.26,100.0,-82
9443,26.192,91.49,0.61,-0.29,0.00,-0.54,11.26,100.0,-82
9444,26.276,90.31,1.29,-0.34,-1.18,-0.39,11.52,100.0,-84
9445,26.360,90.95,1.18,-0.34,-1.13,-0.05,11.52,100.0,-84
9446,26.443,90.02,1.09,-0.34,-1.03,0.15,11.52,100.0,-84
9447,26.527,90.02,0.97,-0.29,-0.83,0.39,11.26,100.0,-84
9448,26.611,89.07,2.53,2.16,1.27,0.39,11.26,100.0,-84
9449,26.694,88.35,0.88,-0.20,0.20,0.83,11.26,100.0,-84
9450,26.778,85.62,0.44,0.15,-0.29,0.29,11.52,100.0,-84
9451,26.862,83.78,0.53,0.10,0.39,0.34,11.52,100.0,-84
9452,26.945,81.80,1.36,0.05,0.88,1.03,11.52,100.0,-84
9453,27.029,81.80,0.90,0.15,0.74,0.49,11.26,100.0,-84
9454,27.113,79.16,1.01,0.20,0.93,0.34,11.26,100.0,-84
9455,27.196,76.43,1.02,0.20,0.98,0.20,11.26,100.0,-84
9456,27.280,74.19,0.72,-0.20,-0.05,0.69,11.52,100.0,-79
9457,27.381,74.57,1.39,-0.15,-1.18,0.74,11.52,100.0,-79
9458,27.481,77.66,2.51,-0.20,-2.50,0.15,11.52,100.0,-79
9459,27.581,77.66,2.35,-0.20,-2.25,-0.64,11.40,100.0,-79
9460,27.682,77.05,2.39,-0.34,-2.06,-1.18,11.40,100.0,-79
9461,27.782,76.15,2.26,-0.39,-1.67,-1.47,11.40,100.0,-79
9462,27.883,73.97,0.63,0.34,0.44,0.29,11.52,100.0,-81
9463,27.967,70.65,0.55,0.29,0.39,0.24,11.52,100.0,-81
9464,28.050,68.89,1.18,0.29,0.59,0.98,11.52,100.0,-81
9465,28.134,68.89,0.46,0.15,0.39,0.20,11.26,100.0,-81
9466,28.218,66.70,0.24,0.10,-0.20,0.10,11.26,100.0,-81
9467,28.301,65.72,0.40,0.34,-0.05,0.20,11.26,100.0,-81
9468,28.385,63.51,1.24,-1.13,-0.49,-0.20,11.52,100.0,-79
9469,28.552,61.22,0.63,-0.44,-0.29,-0.34,11.52,100.0,-79
9470,28.719,58.43,0.37,-0.20,0.10,-0.29,11.52,100.0,-79
9471,28.886,58.43,0.32,-0.15,0.15,-0.24,11.26,100.0,-79
9472,29.053,56.22,0.43,-0.10,0.24,-0.34,11.26,100.0,-79
9473,29.220,54.92,0.59,-0.05,0.44,-0.39,11.26,100.0,-79
9480,29.387,45.83,1.32,0.00,-1.32,0.00,10.91,94.5,-71
9481,29.471,44.57,1.64,0.00,-1.27,-1.03,10.91,94.5,-71
9482,29.554,44.57,1.70,0.00,-1.27,-1.13,10.91,94.5,-71
9483,29.638,43.72,2.14,0.00,-0.39,-2.11,10.64,94.5,-71
9484,29.722,42.20,2.11,0.00,0.00,-2.11,10.64,94.5,-71
9485,29.805,42.20,1.92,0.00,0.20,-1.91,10.64,94.5,-71
9486,29.889,40.57,1.72,-0.10,0.88,1.47,10.91,94.8,-74
9487,29.989,37.16,1.64,-0.29,0.39,1.57,10.91,94.8,-74
9488,30.090,36.99,1.97,-0.10,-0.64,1.86,10.91,94.8,-74
9489,30.191,36.99,2.15,-0.10,-1.52,1.52,10.76,94.8,-74
9490,30.291,38.38,1.61,-0.59,-0.49,1.42,10.76,94.8,-74
9491,30.392,38.23,2.10,-0.20,-2.06,-0.39,10.76,94.8,-74
9492,30.492,36.02,1.25,0.00,0.93,0.83,10.91,95.1,-67
9493,30.576,30.59,1.59,0.00,1.13,1.13,10.91,95.1,-67
9494,30.659,30.59,1.36,0.00,0.83,1.08,10.91,95.1,-67
9495,30.743,26.04,1.55,-0.05,0.88,1.27,10.64,95.1,-67
9496,30.827,22.35,2.01,0.00,1.13,1.67,10.64,95.1,-67
9497,30.910,19.28,2.58,0.05,1.62,2.01,10.64,95.1,-67
9498,30.994,18.61,1.18,0.00,0.78,-0.88,10.91,95.4,-73
9499,31.078,17.28,0.99,-0.05,0.93,-0.34,10.91,95.4,-73
9500,31.161,17.28,1.12,-0.24,0.98,0.49,10.91,95.4,-73
9501,31.245,15.26,1.72,-0.39,1.67,-0.20,10.64,95.4,-73
9502,31.329,15.49,2.28,-0.64,1.67,-1.42,10.64,95.4,-73
9503,31.412,15.24,3.34,-0.78,1.27,-2.99,10.64,95.4,-73
9504,31.496,15.49,0.87,-0.15,-0.44,-0.74,10.91,95.7,-88
9505,31.580,13.02,0.77,-0.24,0.00,-0.74,10.91,95.7,-88
9506,31.664,10.96,2.25,-1.72,-0.49,-1.37,10.91,95.7,-88
9507,31.747,10.96,0.56,-0.10,0.10,-0.54,10.64,95.7,-88
9508,31.831,8.89,0.52,-0.10,0.15,-0.49,10.64,95.7,-88
9509,31.915,7.03,0.56,-0.34,0.20,-0.39,10.64,95.7,-88
9510,31.999,5.54,0.24,0.00,0.15,-0.20,10.91,95.9,-89
9511,32.083,4.04,2.49,0.05,0.44,-2.45,10.91,95.9,-89
9512,32.166,4.04,0.57,0.10,0.34,-0.44,10.91,95.9,-89
9513,32.250,2.70,2.44,2.20,0.98,-0.39,10.64,95.9,-89
9514,32.334,-1.97,1.73,1.52,0.29,-0.78,10.64,95.9,-89
9515,32.417,-1.69,0.93,0.44,0.24,-0.78,10.64,95.9,-89
9516,32.501,-1.36,0.93,0.49,0.78,0.10,10.91,96.2,-88
9517,32.601,-1.27,0.97,0.49,0.83,0.10,10.91,96.2,-88
9518,32.702,-1.08,0.97,0.49,0.83,0.10,10.91,96.2,-88
9519,32.802,-1.08,1.01,0.49,0.88,0.05,10.76,96.2,-88
9520,32.902,-1.07,0.97,0.49,0.83,0.05,10.76,96.2,-88
9521,33.003,-0.94,0.95,0.44,0.83,0.10,10.76,96.2,-88
9522,33.103,-0.86,0.99,0.44,0.88,0.10,10.91,96.4,-89
9523,33.187,-0.81,1.01,0.49,0.88,0.05,10.91,96.4,-89
9524,33.271,-0.75,0.95,0.44,0.83,0.10,10.91,96.4,-89
9525,33.355,-0.75,0.95,0.44,0.83,0.10,10.64,96.4,-89
9526,33.438,-0.74,0.97,0.49,0.83,0.10,10.64,96.4,-89
9527,33.522,-0.77,0.97,0.49,0.83,0.10,10.64,96.4,-89
9528,33.606,-0.71,0.92,0.39,0.83,0.05,10.91,96.6,-93
9529,33.690,-0.70,1.00,0.54,0.83,0.10,10.91,96.6,-93
9530,33.773,-0.67,0.94,0.49,0.78,0.15,10.91,96.6,-93
9531,33.857,-0.67,0.97,0.49,0.83,0.10,10.64,96.6,-93
9532,33.941,-0.63,0.97,0.49,0.83,0.10,10.64,96.6,-93
9533,34.024,-0.65,0.97,0.49,0.83,0.10,10.64,96.6,-93
9534,34.108,-0.63,0.93,0.49,0.78,0.10,10.91,96.8,-93
9535,34.192,-0.68,0.91,0.44,0.78,0.15,10.91,96.8,-93
9536,34.275,-0.68,0.94,0.44,0.83,0.05,10.91,96.8,-93
9537,34.359,-0.68,0.97,0.49,0.83,0.10,10.64,96.8,-93
9538,34.443,-0.77,0.95,0.44,0.83,0.10,10.64,96.8,-93
9539,34.526,-0.69,1.01,0.49,0.88,0.10,10.64,96.8,-93
9540,34.610,-0.61,0.93,0.39,0.83,0.15,10.91,97.0,-93
9541,34.710,-0.61,0.95,0.44,0.83,0.10,10.91,97.0,-93
9542,34.811,-0.64,0.93,0.49,0.78,0.10,10.91,97.0,-93
9543,34.911,-0.64,0.99,0.44,0.88,0.10,10.76,97.0,-93
9544,35.011,-0.71,0.93,0.49,0.78,0.10,10.76,97.0,-93
9545,35.112,-0.74,0.98,0.49,0.83,0.15,10.76,97.0,-93
9546,35.212,-0.71,0.95,0.44,0.83,0.10,10.91,97.2,-92
9547,35.296,-0.72,0.93,0.49,0.78,0.10,10.91,97.2,-92
9548,35.380,-0.71,1.01,0.49,0.88,0.10,10.91,97.2,-92
9549,35.465,-0.71,0.90,0.44,0.78,0.10,10.64,97.2,-92
9550,35.549,-0.70,0.97,0.49,0.83,0.10,10.64,97.2,-92
9551,35.633,-0.69,0.99,0.44,0.88,0.10,10.64,97.2,-92
9552,35.717,-0.60,0.95,0.44,0.83,0.15,10.90,97.3,-95
9553,35.800,-0.63,0.97,0.49,0.83,0.10,10.90,97.3,-95
9554,35.884,-0.68,0.97,0.49,0.83,0.10,10.90,97.3,-95
9555,35.967,-0.68,0.97,0.49,0.83,0.10,10.64,97.3,-95
9556,36.050,-0.78,0.95,0.44,0.83,0.15,10.64,97.3,-95
9557,36.134,-0.79,0.94,0.44,0.83,0.05,10.64,97.3,-95
9558,36.217,-0.79,0.95,0.44,0.83,0.10,10.91,97.5,-95
9559,36.301,-0.77,1.02,0.49,0.88,0.15,10.91,97.5,-95
9560,36.384,-0.74,0.97,0.49,0.83,0.10,10.91,97.5,-95
9561,36.468,-0.74,0.97,0.49,0.83,0.10,10.64,97.5,-95
9562,36.552,-0.72,0.97,0.49,0.83,0.05,10.64,97.5,-95
9563,36.635,-0.69,0.97,0.49,0.83,0.10,10.64,97.5,-95
9564,36.719,-0.63,0.78,0.64,0.34,0.29,10.91,97.6,-99
9565,36.803,-0.65,0.82,0.69,0.44,0.10,10.91,97.6,-99
9566,36.887,-0.62,0.86,0.74,0.44,0.00,10.91,97.6,-99
9567,36.971,-0.62,0.73,0.64,0.34,0.10,10.76,97.6,-99
9568,37.054,-0.59,0.71,0.59,0.34,0.20,10.76,97.6,-99
9569,37.138,-0.55,0.74,0.69,0.15,0.24,10.76,97.6,-99
9570,37.222,-0.46,0.18,0.00,0.10,0.15,11.02,97.8,-97
9571,37.322,-0.33,0.25,0.05,0.24,0.00,11.02,97.8,-97
9572,37.423,-0.33,0.21,0.05,0.20,-0.05,11.02,97.8,-97
9573,37.523,-0.18,0.26,-0.10,0.24,0.00,10.76,97.8,-97
9574,37.623,-0.11,0.30,-0.05,0.29,-0.05,10.76,97.8,-97
9575,37.724,-0.11,0.39,0.00,0.39,-0.05,10.76,97.8,-97
9576,37.824,-0.04,0.77,-0.10,0.20,0.74,10.91,97.9,-98
9577,37.908,0.01,0.75,0.00,0.15,0.74,10.91,97.9,-98
9578,37.991,0.06,0.75,0.00,0.15,0.74,10.91,97.9,-98
9579,38.075,0.06,0.79,-0.05,0.05,0.78,11.26,97.9,-98
9580,38.159,-0.01,0.71,0.00,-0.20,0.69,11.26,97.9,-98
9581,38.242,0.04,0.66,0.05,-0.15,0.64,11.26,97.9,-98
9582,38.326,0.00,0.54,0.24,-0.20,0.44,11.52,98.0,-95
9583,38.410,-0.06,0.60,0.24,-0.24,0.49,11.52,98.0,-95
9584,38.494,0.10,0.39,0.15,-0.34,0.10,11.52,98.0,-95
9585,38.578,0.10,1.00,0.44,-0.64,-0.64,11.26,98.0,-95
9586,38.661,0.00,0.74,0.29,-0.64,0.24,11.26,98.0,-95
9587,38.745,0.02,0.81,0.44,-0.64,0.24,11.26,98.0,-95
9588,38.829,-0.04,1.25,0.49,-0.39,-1.08,11.52,98.1,-93
9589,38.913,-0.07,1.18,0.49,-0.29,-1.03,11.52,98.1,-93
9590,38.996,-0.01,1.10,0.44,-0.24,-0.98,11.52,98.1,-93
9591,39.080,-0.01,1.10,0.44,-0.24,-0.98,11.40,98.1,-93
9592,39.164,-0.03,0.96,0.34,-0.44,-0.78,11.40,98.1,-93
9593,39.247,-0.04,0.96,0.29,-0.54,-0.74,11.40,98.1,-93
9594,39.331,0.04,0.64,-0.24,-0.59,0.00,11.65,98.2,-87
9595,39.415,0.00,0.59,-0.24,-0.54,-0.05,11.65,98.2,-87
9596,39.498,0.00,0.51,-0.24,-0.44,-0.05,11.65,98.2,-87
9597,39.582,-0.01,0.61,-0.29,-0.54,0.00,11.40,98.2,-87
9598,39.666,-0.03,0.99,-0.34,-0.05,0.93,11.40,98.2,-87
9599,39.749,-0.03,0.79,-0.29,-0.74,0.00,11.40,98.2,-87
9600,39.833,-0.03,0.94,-0.10,-0.93,-0.05,11.65,98.4,-82
9601,39.933,-0.23,1.22,-0.59,-1.03,0.29,11.65,98.4,-82
9602,40.034,-0.10,0.57,-0.15,-0.54,0.10,11.65,98.4,-82
9603,40.135,-0.10,0.62,-0.20,-0.59,0.00,11.40,98.4,-82
9604,40.235,-0.01,0.97,-0.34,-0.88,-0.20,11.40,98.4,-82
9605,40.335,0.10,0.92,-0.24,-0.83,-0.29,11.40,98.4,-82
9606,40.436,0.21,0.54,-0.44,-0.10,0.29,11.52,98.4,-76
9607,40.520,0.26,0.55,-0.39,-0.29,0.24,11.52,98.4,-76
9608,40.603,0.29,0.51,-0.39,-0.29,0.15,11.52,98.4,-76
9609,40.687,0.29,0.57,-0.39,-0.39,0.15,11.26,98.4,-76
9610,40.771,0.25,0.65,-0.44,-0.20,0.44,11.26,98.4,-76
9611,40.854,0.22,0.67,-0.49,0.10,0.44,11.26,98.4,-76
9612,40.938,0.00,0.69,-0.69,0.00,0.10,11.52,98.5,-77
9613,41.105,0.03,0.64,-0.59,0.00,0.24,11.52,98.5,-77
9614,41.272,0.03,0.56,-0.54,0.10,0.10,11.52,98.5,-77
9615,41.439,0.11,0.67,-0.64,-0.05,0.20,11.26,98.5,-77
9616,41.606,0.22,0.83,-0.78,-0.20,0.20,11.26,98.5,-77
9617,41.773,0.32,0.87,-0.78,-0.24,0.29,11.26,98.5,-77
9624,41.940,0.32,1.26,-0.78,0.83,-0.54,10.91,93.2,-97
9625,42.040,0.40,1.21,-0.69,0.83,-0.54,10.91,93.2,-97
9626,42.139,0.44,1.05,-0.54,0.69,-0.59,10.91,93.2,-97
9627,42.239,0.44,1.09,-0.49,0.69,-0.69,10.76,93.2,-97
9628,42.339,0.39,1.17,-0.59,0.74,-0.69,10.76,93.2,-97
9629,42.438,0.45,1.30,-0.69,0.78,-0.78,10.76,93.2,-97
9630,42.538,0.63,1.27,-0.64,0.49,-0.98,10.91,93.6,-90
9631,42.622,0.53,1.41,-0.69,0.49,-1.13,10.91,93.6,-90
9632,42.706,0.46,1.44,-0.78,0.29,-1.18,10.91,93.6,-90
9633,42.790,0.46,1.51,-0.98,0.24,-1.13,10.65,93.6,-90
9634,42.875,0.37,1.51,-0.98,0.20,-1.13,10.65,93.6,-90
9635,42.959,0.32,1.44,-0.93,0.20,-1.08,10.65,93.6,-90
9636,43.043,0.33,1.15,-0.69,0.78,-0.49,10.91,94.0,-92
9637,43.127,0.33,1.40,-0.69,0.93,-0.78,10.91,94.0,-92
9638,43.210,0.26,1.45,-0.59,1.03,-0.83,10.91,94.0,-92
9639,43.294,0.26,1.46,-0.69,1.03,-0.78,10.64,94.0,-92
9640,43.378,0.32,1.39,-0.69,0.88,-0.83,10.64,94.0,-92
9641,43.461,0.28,1.33,-0.69,0.83,-0.78,10.64,94.0,-92
9642,43.545,0.27,1.29,-0.78,0.44,-0.93,10.91,94.3,-98
9643,43.629,0.30,1.27,-0.74,0.44,-0.93,10.91,94.3,-98
9644,43.712,0.30,1.25,-0.74,0.49,-0.88,10.91,94.3,-98
9645,43.796,0.30,1.24,-0.69,0.54,-0.88,10.64,94.3,-98
9646,43.880,0.27,1.35,-0.78,0.49,-0.98,10.64,94.3,-98
9647,43.963,0.27,1.28,-0.78,0.49,-0.88,10.64,94.3,-98
9648,44.047,0.30,1.30,-0.74,0.54,-0.93,10.91,94.7,-91
9649,44.147,0.33,1.33,-0.69,0.59,-0.98,10.91,94.7,-91
9650,44.248,0.32,1.33,-0.64,0.44,-1.08,10.91,94.7,-91
9651,44.348,0.32,1.27,-0.64,0.49,-0.98,10.76,94.7,-91
9652,44.448,0.30,1.34,-0.74,0.54,-0.98,10.76,94.7,-91
9653,44.549,0.28,1.32,-0.74,0.59,-0.93,10.76,94.7,-91
9654,44.649,0.36,1.33,-0.64,0.54,-1.03,10.91,95.0,-91
9655,44.733,0.31,1.36,-0.64,0.54,-1.08,10.91,95.0,-91
9656,44.817,0.33,1.36,-0.64,0.54,-1.08,10.91,95.0,-91
9657,44.901,0.33,1.28,-0.54,0.54,-1.03,10.65,95.0,-91
9658,44.984,0.35,1.28,-0.54,0.54,-1.03,10.65,95.0,-91
9659,45.068,0.42,1.36,-0.59,0.59,-1.08,10.65,95.0,-91
9660,45.152,0.46,1.43,-0.69,0.44,-1.18,10.91,95.3,-91
9661,45.236,0.45,1.36,-0.64,0.54,-1.08,10.91,95.3,-91
9662,45.319,0.42,1.34,-0.64,0.49,-1.08,10.91,95.3,-91
9663,45.403,0.42,1.30,-0.59,0.44,-1.08,10.64,95.3,-91
9664,45.487,0.43,1.35,-0.59,0.44,-1.13,10.64,95.3,-91
9665,45.570,0.40,1.34,-0.54,0.59,-1.08,10.64,95.3,-91
9666,45.654,0.38,1.31,-0.64,0.49,-1.03,10.91,95.5,-90
9667,45.738,0.36,1.33,-0.64,0.54,-1.03,10.91,95.5,-90
9668,45.821,0.32,1.34,-0.64,0.49,-1.08,10.91,95.5,-90
9669,45.905,0.32,1.36,-0.59,0.49,-1.13,10.64,95.5,-90
9670,45.989,0.35,1.44,-0.78,0.44,-1.13,10.64,95.5,-90
9671,46.072,0.34,1.46,-0.78,0.49,-1.13,10.64,95.5,-90
9672,46.156,0.37,1.31,-0.69,0.54,-0.98,10.91,95.8,-86
9673,46.240,0.30,1.31,-0.69,0.54,-0.98,10.91,95.8,-86
9674,46.323,0.30,1.33,-0.69,0.49,-1.03,10.91,95.8,-86
9675,46.407,0.30,1.41,-0.74,0.54,-1.08,10.64,95.8,-86
9676,46.491,0.27,1.47,-0.78,0.54,-1.13,10.64,95.8,-86
9677,46.574,0.25,1.45,-0.74,0.54,-1.13,10.64,95.8,-86
9678,46.658,0.30,1.24,-0.49,0.49,-1.03,10.91,96.0,-88
9679,46.758,0.37,1.44,-0.69,0.59,-1.13,10.91,96.0,-88
9680,46.859,0.43,1.24,-0.54,0.54,-0.98,10.91,96.0,-88
9681,46.959,0.43,1.23,-0.54,0.59,-0.93,10.76,96.0,-88
9682,47.059,0.34,1.21,-0.59,0.59,-0.88,10.76,96.0,-88
9683,47.160,0.39,1.26,-0.54,0.59,-0.98,10.76,96.0,-88
9684,47.260,0.38,1.29,-0.83,0.44,-0.88,10.91,96.3,-86
9685,47.344,0.32,1.25,-0.74,0.39,-0.93,10.91,96.3,-86
9686,47.427,0.32,1.20,-0.74,0.44,-0.83,10.91,96.3,-86
9687,47.511,0.32,1.23,-0.74,0.44,-0.88,10.64,96.3,-86
9688,47.595,0.30,1.24,-0.69,0.54,-0.88,10.64,96.3,-86
9689,47.678,0.28,1.20,-0.64,0.59,-0.83,10.64,96.3,-86
9690,47.762,0.31,1.55,-1.03,0.69,-0.93,10.91,96.5,-82
9691,47.846,0.25,1.60,-1.08,0.74,-0.93,10.91,96.5,-82
9692,47.929,0.27,1.44,-0.98,0.59,-0.88,10.91,96.5,-82
9693,48.013,0.27,1.41,-0.93,0.59,-0.88,10.64,96.5,-82
9694,48.097,0.21,1.27,-0.88,0.54,-0.74,10.64,96.5,-82
9695,48.180,0.26,1.30,-0.83,0.54,-0.83,10.64,96.5,-82
9696,48.264,0.35,1.16,-0.88,0.64,-0.39,10.91,96.7,-85
9697,48.348,0.32,1.14,-0.88,0.64,-0.34,10.91,96.7,-85
9698,48.432,0.37,1.14,-0.83,0.64,-0.44,10.91,96.7,-85
9699,48.516,0.37,1.16,-0.88,0.64,-0.39,10.64,96.7,-85
9700,48.599,0.31,1.21,-0.93,0.69,-0.34,10.64,96.7,-85
9701,48.683,0.32,1.18,-0.93,0.64,-0.34,10.64,96.7,-85
9702,48.767,0.45,1.19,-0.83,0.49,-0.69,10.91,96.9,-87
9703,48.867,0.41,1.16,-0.83,0.49,-0.64,10.91,96.9,-87
9704,48.968,0.40,1.30,-0.93,0.54,-0.74,10.91,96.9,-87
9705,49.068,0.40,1.30,-0.93,0.54,-0.74,10.64,96.9,-87
9706,49.168,0.34,1.31,-0.98,0.54,-0.69,10.64,96.9,-87
9707,49.269,0.32,1.22,-0.88,0.49,-0.69,10.64,96.9,-87
9708,49.369,0.31,1.33,-0.78,0.29,-1.03,10.79,97.1,-85
9709,49.453,0.27,1.28,-0.78,0.39,-0.93,10.79,97.1,-85
9710,49.536,0.30,1.23,-0.78,0.34,-0.88,10.79,97.1,-85
9711,49.620,0.30,1.21,-0.74,0.39,-0.88,10.64,97.1,-85
9712,49.704,0.24,1.06,-0.69,0.34,-0.74,10.64,97.1,-85
9713,49.787,0.19,1.02,-0.59,0.29,-0.78,10.64,97.1,-85
9714,49.871,0.30,1.26,-0.69,0.24,-1.03,10.91,97.2,-80
9715,49.955,0.22,1.23,-0.69,0.29,-0.98,10.91,97.2,-80
9716,50.038,0.30,1.34,-0.69,0.39,-1.08,10.91,97.2,-80
9717,50.122,0.30,1.22,-0.64,0.34,-0.98,10.64,97.2,-80
9718,50.206,0.27,1.17,-0.69,0.34,-0.88,10.64,97.2,-80
9719,50.289,0.24,1.23,-0.64,0.39,-0.98,10.64,97.2,-80
9720,50.373,0.37,1.54,-0.98,0.59,-1.03,10.91,97.4,-77
9721,50.457,0.32,1.49,-0.93,0.54,-1.03,10.91,97.4,-77
9722,50.540,0.30,1.41,-0.83,0.59,-0.98,10.91,97.4,-77
9723,50.624,0.30,1.29,-0.74,0.59,-0.88,11.27,97.4,-77
9724,50.708,0.26,1.24,-0.74,0.54,-0.83,11.27,97.4,-77
9725,50.791,0.22,1.35,-0.83,0.59,-0.88,11.27,97.4,-77
9726,50.875,0.30,1.33,-0.83,0.69,-0.78,11.53,97.6,-79
9727,50.975,0.28,1.35,-0.93,0.64,-0.74,11.53,97.6,-79
9728,51.076,0.23,1.42,-0.88,0.69,-0.88,11.53,97.6,-79
9729,51.176,0.23,1.50,-0.93,0.78,-0.88,11.40,97.6,-79
9730,51.276,0.19,1.60,-0.98,0.74,-1.03,11.40,97.6,-79
9731,51.377,0.27,1.63,-1.03,0.74,-1.03,11.40,97.6,-79
9732,51.477,0.39,1.42,-0.74,0.83,-0.88,11.52,97.7,-76
9733,51.561,0.31,1.54,-0.74,0.93,-0.98,11.52,97.7,-76
9734,51.645,0.31,1.49,-0.69,0.88,-0.98,11.52,97.7,-76
9735,51.728,0.31,1.43,-0.69,0.83,-0.93,11.27,97.7,-76
9736,51.812,0.30,1.49,-0.74,0.78,-1.03,11.27,97.7,-76
9737,51.896,0.33,1.46,-0.74,0.74,-1.03,11.27,97.7,-76
9738,51.980,0.37,1.22,-0.74,0.64,-0.74,11.52,97.8,-76
9739,52.064,0.32,1.28,-0.83,0.74,-0.64,11.52,97.8,-76
9740,52.147,0.31,1.45,-0.93,0.83,-0.74,11.52,97.8,-76
9741,52.231,0.31,1.48,-0.93,0.69,-0.93,11.27,97.8,-76
9742,52.315,0.30,1.33,-0.93,0.54,-0.78,11.27,97.8,-76
9743,52.398,0.22,1.21,-0.78,0.39,-0.83,11.27,97.8,-76
9744,52.482,0.28,1.32,-0.59,0.59,-1.03,11.52,98.0,-77
9745,52.566,0.32,1.31,-0.64,0.59,-0.98,11.52,98.0,-77
9746,52.649,0.36,1.32,-0.74,0.59,-0.93,11.52,98.0,-77
9747,52.733,0.36,1.43,-0.74,0.59,-1.08,11.27,98.0,-77
9748,52.817,0.37,1.36,-0.74,0.59,-0.98,11.27,98.0,-77
9749,52.900,0.35,1.37,-0.78,0.54,-0.98,11.27,98.0,-77
9750,52.984,0.41,1.08,-0.74,0.39,-0.69,11.52,98.1,-89
9751,53.068,0.36,1.02,-0.74,0.39,-0.59,11.52,98.1,-89
9752,53.151,0.29,1.15,-0.78,0.49,-0.69,11.52,98.1,-89
9753,53.235,0.29,1.35,-1.03,0.64,-0.59,11.40,98.1,-89
9754,53.319,0.27,1.26,-0.98,0.54,-0.59,11.40,98.1,-89
9755,53.402,0.32,1.31,-0.98,0.59,-0.64,11.40,98.1,-89
9756,53.486,0.34,1.02,-0.59,0.54,-0.64,11.66,98.2,-77
9757,53.586,0.35,1.08,-0.64,0.54,-0.69,11.66,98.2,-77
9758,53.686,0.45,1.18,-0.78,0.49,-0.74,11.66,98.2,-77
9759,53.787,0.45,1.30,-0.88,0.54,-0.78,11.40,98.2,-77
9760,53.887,0.45,1.44,-1.13,0.59,-0.69,11.40,98.2,-77
9761,53.987,0.43,1.46,-1.08,0.59,-0.78,11.40,98.2,-77
9762,54.087,0.46,0.98,-0.69,0.44,-0.54,11.53,98.3,-77
9763,54.171,0.44,0.95,-0.69,0.44,-0.49,11.53,98.3,-77
9764,54.255,0.46,0.99,-0.74,0.49,-0.44,11.53,98.3,-77
9765,54.339,0.46,1.07,-0.78,0.49,-0.54,11.27,98.3,-77
9766,54.422,0.41,1.08,-0.83,0.49,-0.49,11.27,98.3,-77
9767,54.506,0.40,1.20,-0.93,0.54,-0.54,11.27,98.3,-77
9768,54.590,0.46,1.05,-0.54,0.59,-0.69,11.52,98.4,-72
9769,54.674,0.37,1.05,-0.54,0.64,-0.64,11.52,98.4,-72
9770,54.757,0.41,1.05,-0.59,0.69,-0.54,11.52,98.4,-72
9771,54.841,0.41,1.08,-0.54,0.64,-0.69,11.27,98.4,-72
9772,54.924,0.28,1.13,-0.64,0.69,-0.64,11.27,98.4,-72
9773,55.008,0.26,1.30,-0.69,0.78,-0.78,11.27,98.4,-72
9774,55.091,0.34,1.11,-0.54,0.74,-0.64,11.53,98.5,-70
9775,55.175,0.32,1.17,-0.54,0.78,-0.69,11.53,98.5,-70
9776,55.259,0.39,1.19,-0.49,0.83,-0.69,11.53,98.5,-70
9777,55.343,0.39,1.17,-0.49,0.88,-0.59,11.27,98.5,-70
9778,55.428,0.35,1.18,-0.54,0.83,-0.64,11.27,98.5,-70
9779,55.512,0.37,1.18,-0.59,0.83,-0.59,11.27,98.5,-70
9780,55.596,0.35,1.40,-0.54,1.03,-0.78,11.52,98.6,-69
9781,55.696,0.27,1.30,-0.54,0.93,-0.74,11.52,98.6,-69
9782,55.796,0.29,1.22,-0.49,0.88,-0.69,11.52,98.6,-69
9783,55.897,0.29,1.14,-0.44,0.83,-0.64,11.40,98.6,-69
9784,55.997,0.34,1.11,-0.39,0.74,-0.74,11.40,98.6,-69
9785,56.097,0.36,1.05,-0.39,0.69,-0.69,11.40,98.6,-69
9786,56.197,0.39,1.17,-0.44,0.83,-0.69,11.52,98.7,-69
9787,56.281,0.39,1.23,-0.44,0.88,-0.74,11.52,98.7,-69
9788,56.364,0.42,1.20,-0.44,0.88,-0.69,11.52,98.7,-69
9789,56.448,0.42,1.26,-0.34,0.93,-0.78,11.27,98.7,-69
9790,56.532,0.35,1.32,-0.44,0.93,-0.83,11.27,98.7,-69
9791,56.615,0.29,1.27,-0.39,0.88,-0.83,11.27,98.7,-69
9792,56.699,0.34,1.49,-0.54,0.88,-1.08,11.52,98.7,-67
9793,56.783,0.36,1.56,-0.64,0.93,-1.08,11.52,98.7,-67
9794,56.866,0.22,1.49,-0.69,0.88,-0.98,11.52,98.7,-67
9795,56.950,0.22,1.25,-0.64,0.69,-0.83,11.27,98.7,-67
9796,57.034,0.24,1.19,-0.49,0.64,-0.88,11.27,98.7,-67
9797,57.117,0.25,1.23,-0.44,0.74,-0.88,11.27,98.7,-67
9798,57.201,0.26,1.39,-0.39,1.08,-0.78,11.52,98.8,-58
9799,57.285,0.34,1.38,-0.39,0.98,-0.88,11.52,98.8,-58
9800,57.368,0.32,1.46,-0.44,1.08,-0.88,11.52,98.8,-58
9801,57.452,0.32,1.41,-0.49,1.03,-0.83,11.27,98.8,-58
9802,57.536,0.22,1.23,-0.34,0.88,-0.78,11.27,98.8,-58
9803,57.619,0.28,1.27,-0.39,0.88,-0.83,11.27,98.8,-58
9804,57.703,0.32,1.36,-0.78,0.74,-0.83,11.52,98.9,-60
9805,57.803,0.31,1.25,-0.78,0.64,-0.74,11.52,98.9,-60
9806,57.904,0.36,1.29,-0.69,0.64,-0.88,11.52,98.9,-60
9807,58.005,0.36,1.37,-0.64,0.78,-0.93,11.40,98.9,-60
9808,58.105,0.35,1.40,-0.64,0.83,-0.93,11.40,98.9,-60
9809,58.206,0.40,1.42,-0.74,0.88,-0.83,11.40,98.9,-60
9810,58.306,0.40,1.39,-0.54,0.83,-0.98,11.52,99.0,-60
9811,58.390,0.34,1.27,-0.54,0.74,-0.88,11.52,99.0,-60
9812,58.473,0.36,1.20,-0.44,0.74,-0.83,11.52,99.0,-60
9813,58.557,0.36,1.18,-0.49,0.74,-0.78,11.27,99.0,-60
9814,58.641,0.32,1.26,-0.54,0.83,-0.78,11.27,99.0,-60
9815,58.724,0.26,1.32,-0.44,0.88,-0.88,11.27,99.0,-60
9816,58.808,0.34,1.41,-0.59,0.93,-0.88,11.52,99.0,-54
9817,58.892,0.24,1.44,-0.59,0.98,-0.88,11.52,99.0,-54
9818,58.975,0.29,1.44,-0.49,0.98,-0.93,11.52,99.0,-54
9819,59.059,0.29,1.46,-0.54,0.98,-0.93,11.27,99.0,-54
9820,59.143,0.22,1.43,-0.54,1.03,-0.83,11.27,99.0,-54
9821,59.226,0.25,1.39,-0.54,0.93,-0.88,11.27,99.0,-54
9822,59.310,0.26,1.44,-0.59,0.93,-0.93,11.52,99.1,-55
9823,59.394,0.29,1.33,-0.54,0.88,-0.83,11.52,99.1,-55
9824,59.477,0.31,1.31,-0.49,0.83,-0.88,11.52,99.1,-55
9825,59.561,0.31,1.31,-0.49,0.88,-0.83,11.27,99.1,-55
9826,59.645,0.29,1.27,-0.39,0.88,-0.83,11.27,99.1,-55
9827,59.728,0.29,1.32,-0.44,0.88,-0.88,11.27,99.1,-55
9828,59.812,0.33,1.39,-0.44,0.88,-0.98,11.52,99.1,-70
9829,59.896,0.26,1.36,-0.44,0.83,-0.98,11.52,99.1,-70
9830,59.979,0.29,1.31,-0.49,0.78,-0.93,11.52,99.1,-70
9831,60.063,0.29,1.29,-0.44,0.78,-0.93,11.40,99.1,-70
9832,60.147,0.27,1.31,-0.49,0.83,-0.88,11.40,99.1,-70
9833,60.230,0.29,1.50,-0.49,0.98,-1.03,11.40,99.1,-70
9834,60.314,0.40,1.30,-0.34,0.83,-0.93,11.66,99.2,-66
9835,60.414,0.39,1.27,-0.39,0.88,-0.83,11.66,99.2,-66
9836,60.515,0.40,1.32,-0.29,0.93,-0.88,11.66,99.2,-66
9837,60.615,0.40,1.34,-0.39,0.88,-0.93,11.40,99.2,-66
9838,60.715,0.29,1.32,-0.29,0.88,-0.93,11.40,99.2,-66
9839,60.816,0.36,1.34,-0.39,0.93,-0.88,11.40,99.2,-66
9840,60.916,0.41,1.25,-0.29,0.88,-0.83,11.52,99.2,-61
9841,61.000,0.47,1.37,-0.39,0.93,-0.93,11.52,99.2,-61
9842,61.084,0.43,1.33,-0.34,0.93,-0.88,11.52,99.2,-61
9843,61.167,0.43,1.34,-0.39,0.88,-0.93,11.27,99.2,-61
9844,61.251,0.31,1.37,-0.39,0.93,-0.93,11.27,99.2,-61
9845,61.335,0.33,1.41,-0.39,0.93,-0.98,11.27,99.2,-61
9846,61.419,0.40,1.34,-0.39,0.88,-0.93,11.52,99.3,-59
9847,61.503,0.39,1.34,-0.39,0.93,-0.88,11.52,99.3,-59
9848,61.586,0.36,1.34,-0.39,0.93,-0.88,11.52,99.3,-59
9849,61.670,0.36,1.31,-0.39,0.88,-0.88,11.27,99.3,-59
9850,61.754,0.34,1.25,-0.29,0.88,-0.83,11.27,99.3,-59
9851,61.837,0.30,1.39,-0.44,0.98,-0.88,11.27,99.3,-59
9852,61.921,0.35,1.59,-0.64,1.13,-0.93,11.52,99.3,-58
9853,62.005,0.36,1.57,-0.59,1.08,-0.98,11.52,99.3,-58
9854,62.088,0.33,1.44,-0.49,0.93,-0.98,11.52,99.3,-58
9855,62.171,0.33,1.32,-0.29,0.93,-0.88,11.27,99.3,-58
9856,62.255,0.34,1.32,-0.29,0.88,-0.93,11.27,99.3,-58
9857,62.338,0.36,1.17,-0.24,0.83,-0.78,11.27,99.3,-58
9858,62.422,0.43,1.33,-0.34,0.88,-0.93,11.53,99.4,-58
9859,62.522,0.35,1.28,-0.29,0.93,-0.83,11.53,99.4,-58
9860,62.623,0.35,1.35,-0.24,1.03,-0.83,11.53,99.4,-58
9861,62.723,0.35,1.35,-0.24,1.03,-0.83,11.40,99.4,-58
9862,62.823,0.32,1.38,-0.34,1.08,-0.78,11.40,99.4,-58
9863,62.924,0.29,1.37,-0.34,1.03,-0.83,11.40,99.4,-58
9864,63.024,0.35,1.29,-0.44,0.93,-0.78,11.52,99.4,-60
9865,63.108,0.30,1.31,-0.39,0.93,-0.83,11.52,99.4,-60
9866,63.191,0.28,1.31,-0.39,0.93,-0.83,11.52,99.4,-60
9867,63.275,0.28,1.27,-0.39,0.88,-0.83,11.27,99.4,-60
9868,63.359,0.30,1.34,-0.39,0.88,-0.93,11.27,99.4,-60
9869,63.442,0.27,1.32,-0.44,0.93,-0.83,11.27,99.4,-60
9870,63.526,0.42,1.35,-0.59,0.88,-0.83,11.53,99.4,-69
9871,63.610,0.40,1.33,-0.54,0.88,-0.83,11.53,99.4,-69
9872,63.693,0.35,1.42,-0.54,0.98,-0.88,11.53,99.4,-69
9873,63.777,0.35,1.43,-0.54,1.03,-0.83,11.27,99.4,-69
9874,63.861,0.27,1.55,-0.59,1.13,-0.88,11.27,99.4,-69
9875,63.944,0.25,1.46,-0.54,1.03,-0.88,11.27,99.4,-69
9876,64.028,0.27,1.34,-0.49,0.93,-0.83,11.52,99.5,-68
9877,64.112,0.27,1.34,-0.49,0.93,-0.83,11.52,99.5,-68
9878,64.195,0.26,1.28,-0.49,0.83,-0.83,11.52,99.5,-68
9879,64.279,0.26,1.24,-0.49,0.83,-0.78,11.27,99.5,-68
9880,64.363,0.27,1.34,-0.49,0.93,-0.83,11.27,99.5,-68
9881,64.446,0.29,1.39,-0.54,0.98,-0.83,11.27,99.5,-68
9882,64.530,0.40,1.28,-0.29,0.93,-0.83,11.53,99.5,-65
9883,64.630,0.38,1.25,-0.29,0.88,-0.83,11.53,99.5,-65
9884,64.731,0.29,1.26,-0.34,0.93,-0.78,11.53,99.5,-65
9885,64.832,0.29,1.23,-0.34,0.93,-0.74,11.40,99.5,-65
9886,64.932,0.25,1.26,-0.29,0.98,-0.74,11.40,99.5,-65
9887,65.032,0.27,1.37,-0.34,1.03,-0.83,11.40,99.5,-65
9888,65.133,0.33,1.36,-0.34,0.98,-0.88,11.53,99.5,-58
9889,65.217,0.34,1.27,-0.39,0.88,-0.83,11.53,99.5,-58
9890,65.300,0.39,1.18,-0.39,0.83,-0.74,11.53,99.5,-58
9891,65.384,0.39,1.21,-0.39,0.83,-0.78,11.27,99.5,-58
9892,65.468,0.32,1.26,-0.34,0.88,-0.83,11.27,99.5,-58
9893,65.551,0.28,1.32,-0.44,0.88,-0.88,11.27,99.5,-58
9894,65.635,0.39,1.34,-0.49,0.88,-0.88,11.53,99.5,-58
9895,65.719,0.36,1.43,-0.54,1.03,-0.83,11.53,99.5,-58
9896,65.802,0.29,1.41,-0.59,0.93,-0.88,11.53,99.5,-58
9897,65.886,0.29,1.43,-0.54,1.03,-0.83,11.27,99.5,-58
9898,65.970,0.25,1.40,-0.54,1.03,-0.78,11.27,99.5,-58
9899,66.053,0.30,1.36,-0.54,0.93,-0.83,11.27,99.5,-58
9900,66.137,0.29,1.24,-0.24,0.88,-0.83,11.53,99.6,-59
9901,66.221,0.28,1.25,-0.29,0.88,-0.83,11.53,99.6,-59
9902,66.304,0.31,1.21,-0.29,0.83,-0.83,11.53,99.6,-59
9903,66.388,0.31,1.26,-0.34,0.88,-0.83,11.27,99.6,-59
9904,66.471,0.29,1.19,-0.34,0.83,-0.78,11.27,99.6,-59
9905,66.555,0.32,1.25,-0.29,0.83,-0.88,11.27,99.6,-59
9906,66.638,0.44,1.23,-0.34,0.83,-0.83,11.53,99.6,-53
9907,66.722,0.43,1.26,-0.34,0.88,-0.83,11.53,99.6,-53
9908,66.806,0.35,1.31,-0.39,0.88,-0.88,11.53,99.6,-53
9909,66.889,0.35,1.34,-0.39,0.93,-0.88,11.40,99.6,-53
9910,66.973,0.32,1.31,-0.39,0.93,-0.83,11.40,99.6,-53
9911,67.057,0.30,1.36,-0.44,0.98,-0.83,11.40,99.6,-53
9912,67.141,0.37,1.37,-0.49,0.88,-0.93,11.66,99.6,-51
9913,67.241,0.24,1.41,-0.49,0.93,-0.93,11.66,99.6,-51
9914,67.341,0.25,1.41,-0.49,0.88,-0.98,11.66,99.6,-51
9915,67.442,0.25,1.39,-0.54,0.88,-0.93,11.40,99.6,-51
9916,67.542,0.22,1.39,-0.54,0.83,-0.98,11.40,99.6,-51
9917,67.642,0.26,1.31,-0.49,0.78,-0.93,11.40,99.6,-51
9918,67.742,0.36,1.37,-0.39,0.93,-0.93,11.53,99.6,-55
9919,67.826,0.35,1.29,-0.34,0.88,-0.88,11.53,99.6,-55
9920,67.910,0.31,1.35,-0.29,0.88,-0.98,11.53,99.6,-55
9921,67.994,0.31,1.37,-0.39,0.93,-0.93,11.27,99.6,-55
9922,68.077,0.30,1.37,-0.39,0.93,-0.93,11.27,99.6,-55
9923,68.161,0.33,1.29,-0.29,0.78,-0.98,11.27,99.6,-55
9924,68.245,0.37,1.39,-0.10,0.93,-1.03,11.53,99.7,-54
9925,68.329,0.26,1.33,-0.15,0.88,-0.98,11.53,99.7,-54
9926,68.412,0.21,1.37,-0.24,0.93,-0.98,11.53,99.7,-54
9927,68.496,0.21,1.29,-0.15,0.83,-0.98,11.27,99.7,-54
9928,68.580,0.19,1.31,-0.24,0.83,-0.98,11.27,99.7,-54
9929,68.663,0.28,1.35,-0.24,0.83,-1.03,11.27,99.7,-54
9930,68.747,0.39,1.40,-0.10,0.83,-1.13,11.53,99.7,-53
9931,68.831,0.37,1.40,-0.10,0.83,-1.13,11.53,99.7,-53
9932,68.914,0.37,1.38,-0.20,0.83,-1.08,11.53,99.7,-53
9933,68.998,0.37,1.44,-0.10,0.83,-1.18,11.27,99.7,-53
9934,69.082,0.27,1.41,-0.15,0.83,-1.13,11.27,99.7,-53
9935,69.165,0.29,1.41,-0.15,0.83,-1.13,11.27,99.7,-53
9936,69.249,0.33,1.25,0.00,0.93,-0.83,11.53,99.7,-51
9937,69.349,0.25,1.35,0.00,0.98,-0.93,11.53,99.7,-51
9938,69.450,0.25,1.42,0.05,1.03,-0.98,11.53,99.7,-51
9939,69.550,0.19,1.49,0.05,1.03,-1.08,11.40,99.7,-51
9940,69.650,0.16,1.49,0.10,1.03,-1.08,11.40,99.7,-51
9941,69.751,0.28,1.44,0.00,1.18,-0.83,11.40,99.7,-51
9942,69.851,0.23,0.73,0.10,0.64,-0.34,11.53,99.7,-49
9943,69.935,0.21,0.79,0.20,0.59,-0.49,11.53,99.7,-49
9944,70.018,0.18,1.21,0.24,1.08,-0.49,11.53,99.7,-49
9945,70.102,0.18,1.39,0.15,1.27,-0.54,11.27,99.7,-49
9946,70.186,0.17,1.61,0.10,1.47,-0.64,11.27,99.7,-49
9947,70.269,0.13,1.57,0.20,1.42,-0.64,11.27,99.7,-49
9948,70.353,0.17,1.23,-0.20,1.03,-0.64,11.53,99.7,-53
9949,70.437,0.16,1.34,-0.39,0.98,-0.83,11.53,99.7,-53
9950,70.520,0.08,1.36,-0.44,0.88,-0.93,11.53,99.7,-53
9951,70.604,0.08,1.32,-0.44,0.88,-0.88,11.27,99.7,-53
9952,70.688,0.00,1.28,-0.39,0.93,-0.78,11.27,99.7,-53
9953,70.771,-0.05,1.43,-0.59,1.08,-0.74,11.27,99.7,-53
9954,70.855,-0.05,1.35,-0.20,1.08,-0.78,11.53,99.8,-51
9955,70.939,-0.03,1.40,-0.20,1.18,-0.74,11.53,99.8,-51
9956,71.023,-0.02,1.38,-0.34,1.18,-0.64,11.53,99.8,-51
9957,71.107,-0.02,1.36,-0.34,1.13,-0.69,11.27,99.8,-51
9958,71.190,-0.12,1.36,-0.34,0.98,-0.88,11.27,99.8,-51
9959,71.274,-0.17,1.30,-0.34,0.83,-0.93,11.27,99.8,-51
9960,71.358,-0.12,1.36,-0.54,0.88,-0.88,11.53,99.8,-52
9961,71.458,-0.17,1.41,-0.49,0.93,-0.93,11.53,99.8,-52
9962,71.558,-0.19,1.41,-0.49,0.93,-0.93,11.53,99.8,-52
9963,71.659,-0.19,1.52,-0.54,1.03,-0.98,11.40,99.8,-52
9964,71.759,-0.20,1.46,-0.54,0.93,-0.98,11.40,99.8,-52
9965,71.859,-0.17,1.36,-0.44,0.83,-0.98,11.40,99.8,-52
9966,71.959,-0.06,1.39,-0.44,0.88,-0.98,11.53,99.8,-55
9967,72.043,-0.12,1.41,-0.49,0.88,-0.98,11.53,99.8,-55
9968,72.126,-0.05,1.39,-0.44,0.88,-0.98,11.53,99.8,-55
9969,72.210,-0.05,1.39,-0.44,0.93,-0.93,11.27,99.8,-55
9970,72.294,-0.17,1.31,-0.39,0.83,-0.93,11.27,99.8,-55
9971,72.377,-0.20,1.36,-0.44,0.83,-0.98,11.27,99.8,-55
9972,72.461,-0.17,1.36,-0.44,0.83,-0.98,11.53,99.8,-50
9973,72.545,-0.16,1.31,-0.49,0.83,-0.88,11.53,99.8,-50
9974,72.628,-0.23,1.29,-0.44,0.78,-0.93,11.53,99.8,-50
9975,72.712,-0.23,1.26,-0.44,0.78,-0.88,11.27,99.8,-50
9976,72.796,-0.26,1.43,-0.44,0.88,-1.03,11.27,99.8,-50
9977,72.879,-0.26,1.35,-0.39,0.78,-1.03,11.27,99.8,-50
9978,72.963,-0.17,1.41,-0.39,0.88,-1.03,11.53,99.8,-54
9979,73.047,-0.17,1.41,-0.39,0.88,-1.03,11.53,99.8,-54
9980,73.130,-0.24,1.31,-0.39,0.88,-0.88,11.53,99.8,-54
9981,73.214,-0.24,1.37,-0.49,0.88,-0.93,11.27,99.8,-54
9982,73.298,-0.22,1.34,-0.49,0.88,-0.88,11.27,99.8,-54
9983,73.381,-0.21,1.37,-0.49,0.88,-0.93,11.27,99.8,-54
9984,73.465,-0.11,1.36,-0.44,0.88,-0.93,11.53,99.8,-58
9985,73.549,-0.23,1.37,-0.49,0.93,-0.88,11.53,99.8,-58
9986,73.632,-0.18,1.34,-0.49,0.83,-0.93,11.53,99.8,-58
9987,73.716,-0.18,1.40,-0.44,0.83,-1.03,11.40,99.8,-58
9988,73.800,-0.17,1.38,-0.49,0.83,-0.98,11.40,99.8,-58
9989,73.883,-0.19,1.44,-0.49,0.88,-1.03,11.40,99.8,-58
9990,73.967,-0.19,1.38,-0.49,0.83,-0.98,11.66,99.8,-54
9991,74.067,-0.16,1.41,-0.49,0.83,-1.03,11.66,99.8,-54
9992,74.168,-0.22,1.40,-0.44,0.83,-1.03,11.66,99.8,-54
9993,74.268,-0.22,1.33,-0.44,0.78,-0.98,11.40,99.8,-54
9994,74.369,-0.20,1.28,-0.39,0.78,-0.93,11.40,99.8,-54
9995,74.469,-0.19,1.33,-0.44,0.78,-0.98,11.40,99.8,-54
9996,74.570,-0.08,1.32,-0.44,0.83,-0.93,11.53,99.8,-52
9997,74.654,-0.11,1.33,-0.44,0.78,-0.98,11.53,99.8,-52
9998,74.737,-0.07,1.35,-0.49,0.78,-0.98,11.53,99.8,-52
9999,74.821,-0.07,1.33,-0.44,0.78,-0.98,11.27,99.8,-52
10000,74.905,-0.19,1.42,-0.49,0.78,-1.08,11.27,99.8,-52
10001,74.988,-0.26,1.37,-0.44,0.78,-1.03,11.27,99.8,-52
10002,75.072,-0.24,1.36,-0.44,0.83,-0.98,11.53,99.8,-50
10003,75.156,-0.23,1.32,-0.44,0.83,-0.93,11.53,99.8,-50
10004,75.239,-0.20,1.29,-0.44,0.78,-0.93,11.53,99.8,-50
10005,75.323,-0.20,1.32,-0.49,0.74,-0.98,11.27,99.8,-50
10006,75.407,-0.26,1.33,-0.44,0.78,-0.98,11.27,99.8,-50
10007,75.490,-0.32,1.36,-0.49,0.74,-1.03,11.27,99.8,-50
10008,75.574,-0.21,1.32,-0.49,0.74,-0.98,11.53,99.9,-50
10009,75.658,-0.14,1.38,-0.49,0.78,-1.03,11.53,99.9,-50
10010,75.741,-0.14,1.35,-0.49,0.78,-0.98,11.53,99.9,-50
10011,75.825,-0.14,1.29,-0.39,0.74,-0.98,11.27,99.9,-50
10012,75.909,-0.14,1.30,-0.44,0.74,-0.98,11.27,99.9,-50
10013,75.992,-0.20,1.38,-0.49,0.78,-1.03,11.27,99.9,-50
10014,76.076,-0.16,1.27,-0.44,0.74,-0.93,11.53,99.9,-50
10015,76.176,-0.16,1.38,-0.49,0.83,-0.98,11.53,99.9,-50
10016,76.277,-0.14,1.33,-0.44,0.78,-0.98,11.53,99.9,-50
10017,76.377,-0.14,1.25,-0.39,0.74,-0.93,11.40,99.9,-50
10018,76.477,-0.23,1.40,-0.54,0.78,-1.03,11.40,99.9,-50
10019,76.578,-0.18,1.37,-0.44,0.78,-1.03,11.40,99.9,-50
10020,76.678,-0.15,1.34,-0.44,0.74,-1.03,11.53,99.9,-54
10021,76.762,-0.18,1.36,-0.49,0.74,-1.03,11.53,99.9,-54
10022,76.845,-0.12,1.40,-0.44,0.83,-1.03,11.53,99.9,-54
10023,76.929,-0.12,1.31,-0.39,0.78,-0.98,11.27,99.9,-54
10024,77.013,-0.15,1.31,-0.39,0.78,-0.98,11.27,99.9,-54
10025,77.096,-0.16,1.33,-0.44,0.78,-0.98,11.27,99.9,-54
10026,77.180,-0.08,1.35,-0.49,0.78,-0.98,11.53,99.9,-53
10027,77.264,-0.13,1.38,-0.49,0.78,-1.03,11.53,99.9,-53
10028,77.347,-0.14,1.36,-0.49,0.74,-1.03,11.53,99.9,-53
10029,77.431,-0.14,1.34,-0.44,0.74,-1.03,11.27,99.9,-53
10030,77.515,-0.20,1.37,-0.44,0.78,-1.03,11.27,99.9,-53
10031,77.598,-0.22,1.30,-0.44,0.74,-0.98,11.27,99.9,-53
10032,77.682,-0.26,1.38,-0.44,0.74,-1.08,11.53,99.9,-53
10033,77.766,-0.31,1.31,-0.49,0.78,-0.93,11.53,99.9,-53
10034,77.850,-0.29,1.36,-0.44,0.83,-0.98,11.53,99.9,-53
10035,77.934,-0.29,1.40,-0.44,0.83,-1.03,11.27,99.9,-53
10036,78.017,-0.32,1.41,-0.49,0.88,-0.98,11.27,99.9,-53
10037,78.101,-0.34,1.35,-0.49,0.78,-0.98,11.27,99.9,-53
10038,78.185,-0.30,1.36,-0.44,0.88,-0.93,11.53,99.9,-53
10039,78.285,-0.29,1.33,-0.34,0.83,-0.98,11.53,99.9,-53
10040,78.386,-0.30,1.33,-0.34,0.83,-0.98,11.53,99.9,-53
10041,78.486,-0.30,1.28,-0.29,0.83,-0.93,11.40,99.9,-53
10042,78.586,-0.24,1.30,-0.34,0.78,-0.98,11.40,99.9,-53
10043,78.687,-0.27,1.26,-0.34,0.78,-0.93,11.40,99.9,-53
10044,78.787,-0.26,1.41,-0.24,0.93,-1.03,11.53,99.9,-43
10045,78.871,-0.27,1.40,-0.15,0.93,-1.03,11.53,99.9,-43
10046,78.954,-0.31,1.47,-0.15,0.93,-1.13,11.53,99.9,-43
10047,79.038,-0.31,1.48,-0.24,1.03,-1.03,11.27,99.9,-43
10048,79.122,-0.28,1.51,-0.24,1.08,-1.03,11.27,99.9,-43
10049,79.205,-0.24,1.53,-0.29,1.18,-0.93,11.27,99.9,-43
10050,79.289,-0.19,1.47,-0.20,1.13,-0.93,11.53,99.9,-45
10051,79.373,-0.11,1.50,-0.29,1.18,-0.88,11.53,99.9,-45
10052,79.456,-0.06,1.36,-0.24,1.08,-0.78,11.53,99.9,-45
10053,79.540,-0.06,1.32,-0.24,1.03,-0.78,11.27,99.9,-45
10054,79.624,-0.11,1.32,-0.24,1.03,-0.78,11.27,99.9,-45
10055,79.707,-0.07,1.16,-0.20,0.88,-0.74,11.27,99.9,-45
10056,79.791,-0.05,1.33,-0.69,0.83,-0.78,11.53,99.9,-53
10057,79.875,0.05,1.40,-0.69,0.93,-0.78,11.53,99.9,-53
10058,79.958,0.17,1.39,-0.69,0.88,-0.83,11.53,99.9,-53
10059,80.042,0.17,1.48,-0.74,0.93,-0.88,11.27,99.9,-53
10060,80.126,0.13,1.36,-0.78,0.74,-0.83,11.27,99.9,-53
10061,80.209,0.16,1.42,-0.78,0.78,-0.88,11.27,99.9,-53
10062,80.293,0.27,1.28,-0.74,0.49,-0.93,11.53,99.9,-60
10063,80.377,0.24,1.20,-0.69,0.44,-0.88,11.53,99.9,-60
10064,80.460,0.27,1.33,-0.78,0.44,-0.98,11.53,99.9,-60
10065,80.544,0.27,1.29,-0.78,0.44,-0.93,11.40,99.9,-60
10066,80.628,0.28,1.32,-0.83,0.44,-0.93,11.40,99.9,-60
10067,80.711,0.28,1.25,-0.78,0.29,-0.93,11.40,99.9,-60
10068,80.795,0.32,1.29,-0.78,0.05,-1.03,11.66,99.9,-56
10069,80.895,0.35,1.19,-0.74,0.10,-0.93,11.66,99.9,-56
10070,80.996,0.44,1.23,-0.78,0.15,-0.93,11.66,99.9,-56
10071,81.096,0.44,1.33,-0.88,0.20,-0.98,11.40,99.9,-56
10072,81.197,0.42,1.22,-0.78,0.10,-0.93,11.40,99.9,-56
10073,81.297,0.41,1.18,-0.78,0.10,-0.88,11.40,99.9,-56
10074,81.398,0.43,1.32,-0.93,0.00,-0.93,11.52,99.9,-63
10075,81.482,0.40,1.39,-0.98,0.00,-0.98,11.52,99.9,-63
10076,81.565,0.40,1.42,-0.98,0.00,-1.03,11.52,99.9,-63
10077,81.649,0.42,1.22,-0.93,0.00,-0.78,11.27,99.9,-63
10078,81.733,0.40,1.18,-0.88,0.00,-0.78,11.27,99.9,-63
10079,81.816,0.40,1.25,-0.93,0.10,-0.83,11.27,99.9,-63
10080,81.900,0.37,1.29,-0.93,0.15,-0.88,11.52,99.9,-55
10081,81.984,0.32,1.30,-0.93,0.20,-0.88,11.52,99.9,-55
10082,82.067,0.39,1.30,-0.88,0.20,-0.93,11.52,99.9,-55
10083,82.151,0.39,1.31,-0.88,0.24,-0.93,11.27,99.9,-55
10084,82.235,0.31,1.35,-0.93,0.29,-0.93,11.27,99.9,-55
10085,82.318,0.27,1.27,-0.88,0.24,-0.88,11.27,99.9,-55
10086,82.402,0.34,1.29,-0.74,0.59,-0.88,11.52,99.9,-56
10087,82.486,0.37,1.21,-0.69,0.54,-0.83,11.52,99.9,-56
10088,82.569,0.32,1.33,-0.78,0.54,-0.93,11.52,99.9,-56
10089,82.653,0.32,1.30,-0.78,0.54,-0.88,11.27,99.9,-56
10090,82.737,0.29,1.35,-0.83,0.59,-0.88,11.27,99.9,-56
10091,82.820,0.30,1.29,-0.74,0.59,-0.88,11.27,99.9,-56
10092,82.904,0.38,1.17,-0.74,0.54,-0.74,11.52,99.9,-55
10093,83.004,0.33,1.26,-0.83,0.54,-0.78,11.52,99.9,-55
10094,83.105,0.37,1.29,-0.83,0.59,-0.78,11.52,99.9,-55
10095,83.205,0.37,1.35,-0.88,0.59,-0.83,11.40,99.9,-55
10096,83.305,0.36,1.40,-0.83,0.64,-0.93,11.40,99.9,-55
10097,83.406,0.37,1.44,-0.83,0.64,-0.98,11.40,99.9,-55
10098,83.506,0.40,1.37,-0.74,0.69,-0.93,11.52,99.9,-55
10099,83.590,0.35,1.34,-0.74,0.69,-0.88,11.52,99.9,-55
10100,83.673,0.33,1.29,-0.69,0.64,-0.88,11.52,99.9,-55
10101,83.757,0.33,1.34,-0.74,0.69,-0.88,11.27,99.9,-55
10102,83.841,0.33,1.32,-0.69,0.64,-0.93,11.27,99.9,-55
10103,83.924,0.28,1.37,-0.78,0.64,-0.93,11.27,99.9,-55
10104,84.008,0.43,1.33,-0.74,0.78,-0.78,11.52,99.9,-54
10105,84.092,0.37,1.28,-0.78,0.69,-0.74,11.52,99.9,-54
10106,84.175,0.43,1.22,-0.69,0.69,-0.74,11.52,99.9,-54
10107,84.259,0.43,1.33,-0.74,0.78,-0.78,11.27,99.9,-54
10108,84.343,0.37,1.28,-0.74,0.69,-0.78,11.27,99.9,-54
10109,84.426,0.44,1.30,-0.78,0.78,-0.69,11.27,99.9,-54
10110,84.510,0.47,1.39,-0.88,0.78,-0.74,11.52,99.9,-54
10111,84.594,0.48,1.39,-0.88,0.78,-0.74,11.52,99.9,-54
10112,84.678,0.44,1.39,-0.88,0.78,-0.74,11.52,99.9,-54
10113,84.762,0.44,1.33,-0.78,0.74,-0.78,11.27,99.9,-54
10114,84.845,0.43,1.25,-0.78,0.69,-0.69,11.27,99.9,-54
10115,84.929,0.46,1.28,-0.83,0.74,-0.64,11.27,99.9,-54
10116,85.013,0.43,1.28,-0.78,0.69,-0.74,11.52,100.0,-56
10117,85.097,0.37,1.31,-0.88,0.69,-0.69,11.52,100.0,-56
10118,85.180,0.33,1.35,-0.93,0.64,-0.74,11.52,100.0,-56
10119,85.264,0.33,1.38,-0.98,0.69,-0.69,11.40,100.0,-56
10120,85.348,0.31,1.26,-0.88,0.64,-0.64,11.40,100.0,-56
10121,85.431,0.27,1.26,-0.88,0.69,-0.59,11.40,100.0,-56
10122,85.515,0.36,1.26,-0.88,0.69,-0.59,11.66,100.0,-59
10123,85.615,0.34,1.31,-0.88,0.69,-0.69,11.66,100.0,-59
10124,85.716,0.41,1.38,-0.98,0.64,-0.74,11.66,100.0,-59
10125,85.816,0.41,1.32,-0.93,0.59,-0.74,11.40,100.0,-59
10126,85.916,0.36,1.35,-0.93,0.59,-0.78,11.40,100.0,-59
10127,86.017,0.39,1.19,-0.93,0.44,-0.59,11.40,100.0,-59
10128,86.117,0.39,1.21,-0.93,0.49,-0.59,11.52,100.0,-58
10129,86.201,0.39,1.23,-0.93,0.54,-0.59,11.52,100.0,-58
10130,86.284,0.39,1.17,-0.88,0.49,-0.59,11.52,100.0,-58
10131,86.368,0.39,1.15,-0.88,0.44,-0.59,11.27,100.0,-58
10132,86.452,0.34,1.21,-0.88,0.54,-0.64,11.27,100.0,-58
10133,86.535,0.35,1.13,-0.88,0.39,-0.59,11.27,100.0,-58
10134,86.619,0.40,1.33,-1.08,0.44,-0.64,11.52,100.0,-54
10135,86.703,0.33,1.21,-1.08,0.49,-0.24,11.52,100.0,-54
10136,86.786,0.40,1.24,-1.03,0.54,-0.44,11.52,100.0,-54
10137,86.870,0.40,1.43,-1.03,0.54,-0.83,11.27,100.0,-54
10138,86.954,0.35,1.26,-0.98,0.54,-0.59,11.27,100.0,-54
10139,87.037,0.36,1.20,-0.93,0.54,-0.54,11.27,100.0,-54
10140,87.121,0.50,1.21,-0.83,0.69,-0.54,11.52,100.0,-54
10141,87.205,0.44,1.17,-0.83,0.69,-0.44,11.52,100.0,-54
10142,87.288,0.40,1.32,-0.88,0.78,-0.59,11.52,100.0,-54
10143,87.372,0.40,1.21,-0.83,0.69,-0.54,11.40,100.0,-54
10144,87.456,0.33,1.34,-0.98,0.74,-0.54,11.40,100.0,-54
10145,87.539,0.31,1.28,-0.93,0.74,-0.49,11.40,100.0,-54
10146,87.623,0.34,1.21,-0.78,0.78,-0.49,11.66,100.0,-52
10147,87.724,0.35,1.21,-0.78,0.78,-0.49,11.66,100.0,-52
10148,87.824,0.36,1.31,-0.78,0.93,-0.49,11.66,100.0,-52
10149,87.924,0.36,1.30,-0.78,0.88,-0.54,11.40,100.0,-52
10150,88.025,0.27,1.36,-0.83,0.93,-0.54,11.40,100.0,-52
10151,88.126,0.30,1.19,-0.69,0.83,-0.49,11.40,100.0,-52
10152,88.226,0.37,1.18,-0.74,0.78,-0.49,11.52,100.0,-55
10153,88.310,0.32,1.21,-0.74,0.83,-0.49,11.52,100.0,-55
10154,88.393,0.30,1.21,-0.78,0.83,-0.39,11.52,100.0,-55
10155,88.477,0.30,1.18,-0.78,0.78,-0.39,11.27,100.0,-55
10156,88.561,0.33,1.24,-0.83,0.83,-0.39,11.27,100.0,-55
10157,88.644,0.33,1.18,-0.83,0.78,-0.29,11.27,100.0,-55
10158,88.728,0.37,1.08,-0.74,0.69,-0.39,11.52,100.0,-53
10159,88.812,0.29,1.20,-0.88,0.74,-0.34,11.52,100.0,-53
10160,88.895,0.37,1.27,-0.98,0.74,-0.34,11.52,100.0,-53
10161,88.979,0.37,1.26,-0.88,0.78,-0.44,11.27,100.0,-53
10162,89.063,0.30,1.34,-0.98,0.83,-0.39,11.27,100.0,-53
10163,89.146,0.23,1.21,-0.93,0.69,-0.34,11.27,100.0,-53
10164,89.230,0.33,1.26,-0.93,0.69,-0.49,11.52,100.0,-53
10165,89.314,0.34,1.23,-0.88,0.74,-0.44,11.52,100.0,-53
10166,89.397,0.28,1.23,-0.88,0.74,-0.44,11.52,100.0,-53
10167,89.481,0.28,1.23,-0.88,0.74,-0.44,11.27,100.0,-53
10168,89.565,0.24,1.29,-0.98,0.74,-0.39,11.27,100.0,-53
10169,89.648,0.24,1.24,-0.88,0.78,-0.39,11.27,100.0,-53
10170,89.732,0.27,1.21,-0.88,0.74,-0.39,11.52,100.0,-47
10171,89.832,0.28,1.23,-0.88,0.78,-0.34,11.52,100.0,-47
10172,89.933,0.31,1.18,-0.83,0.78,-0.29,11.52,100.0,-47
10173,90.033,0.31,1.30,-0.93,0.83,-0.34,11.40,100.0,-47
10174,90.133,0.31,1.27,-0.88,0.83,-0.39,11.40,100.0,-47
10175,90.234,0.31,1.23,-0.93,0.74,-0.34,11.40,100.0,-47
10176,90.334,0.40,1.29,-0.69,0.98,-0.49,11.52,100.0,-51
10177,90.418,0.34,1.28,-0.74,0.93,-0.49,11.52,100.0,-51
10178,90.501,0.32,1.27,-0.64,0.98,-0.49,11.52,100.0,-51
10179,90.585,0.32,1.21,-0.59,0.93,-0.49,11.27,100.0,-51
10180,90.669,0.28,1.32,-0.59,1.03,-0.59,11.27,100.0,-51
10181,90.752,0.28,1.47,-0.64,1.13,-0.69,11.27,100.0,-51
10182,90.836,0.27,1.13,-0.44,0.78,-0.69,11.52,100.0,-50
10183,90.920,0.29,1.10,-0.44,0.88,-0.49,11.52,100.0,-50
10184,91.003,0.31,1.13,-0.54,0.83,-0.54,11.52,100.0,-50
10185,91.087,0.31,1.13,-0.59,0.83,-0.49,11.27,100.0,-50
10186,91.171,0.28,1.30,-0.78,0.88,-0.54,11.27,100.0,-50
10187,91.254,0.26,1.39,-0.78,0.98,-0.59,11.27,100.0,-50
10188,91.338,0.32,1.34,-0.83,0.83,-0.64,11.52,100.0,-47
10189,91.422,0.29,1.30,-0.83,0.83,-0.54,11.52,100.0,-47
10190,91.506,0.31,1.28,-0.83,0.83,-0.49,11.52,100.0,-47
10191,91.589,0.31,1.32,-0.78,0.88,-0.59,11.27,100.0,-47
10192,91.673,0.29,1.18,-0.74,0.78,-0.49,11.27,100.0,-47
10193,91.757,0.36,1.35,-0.78,0.93,-0.59,11.27,100.0,-47
10194,91.841,0.40,1.33,-0.78,0.93,-0.54,11.52,100.0,-49
10195,91.924,0.37,1.26,-0.74,0.83,-0.59,11.52,100.0,-49
10196,92.008,0.29,1.40,-0.83,0.93,-0.64,11.52,100.0,-49
10197,92.091,0.29,1.34,-0.78,0.88,-0.64,11.40,100.0,-49
10198,92.175,0.23,1.35,-0.83,0.88,-0.59,11.40,100.0,-49
10199,92.258,0.20,1.35,-0.88,0.83,-0.59,11.40,100.0,-49
10200,92.342,0.27,1.31,-0.83,0.78,-0.64,11.66,100.0,-59
10201,92.442,0.34,1.34,-0.88,0.74,-0.69,11.66,100.0,-59
10202,92.543,0.31,1.38,-0.98,0.69,-0.69,11.66,100.0,-59
10203,92.643,0.31,1.46,-1.03,0.74,-0.74,11.40,100.0,-59
10204,92.743,0.34,1.45,-1.08,0.69,-0.69,11.40,100.0,-59
10205,92.844,0.31,1.33,-0.98,0.64,-0.64,11.40,100.0,-59
10206,92.944,0.39,1.25,-0.83,0.64,-0.69,11.53,100.0,-64
10207,93.028,0.31,1.21,-0.83,0.49,-0.74,11.53,100.0,-64
10208,93.111,0.30,1.26,-0.88,0.44,-0.78,11.53,100.0,-64
10209,93.195,0.30,1.30,-0.93,0.34,-0.83,11.27,100.0,-64
10210,93.279,0.28,1.38,-1.08,0.44,-0.74,11.27,100.0,-64
10211,93.362,0.32,1.23,-0.98,0.39,-0.64,11.27,100.0,-64
10212,93.446,0.37,1.25,-0.88,0.49,-0.74,11.53,100.0,-57
10213,93.530,0.36,1.24,-0.83,0.49,-0.78,11.53,100.0,-57
10214,93.613,0.38,1.28,-0.88,0.49,-0.78,11.53,100.0,-57
10215,93.697,0.38,1.34,-0.93,0.49,-0.83,11.27,100.0,-57
10216,93.781,0.32,1.25,-0.93,0.39,-0.74,11.27,100.0,-57
10217,93.864,0.34,1.25,-0.93,0.39,-0.74,11.27,100.0,-57
10218,93.948,0.50,1.32,-1.03,0.39,-0.74,11.53,100.0,-57
10219,94.032,0.51,1.30,-0.98,0.44,-0.74,11.53,100.0,-57
10220,94.115,0.43,1.31,-0.98,0.39,-0.78,11.53,100.0,-57
10221,94.199,0.43,1.27,-0.98,0.44,-0.69,11.27,100.0,-57
10222,94.283,0.39,1.29,-0.98,0.49,-0.69,11.27,100.0,-57
10223,94.366,0.39,1.26,-0.98,0.39,-0.69,11.27,100.0,-57
10224,94.450,0.41,1.24,-0.93,0.44,-0.69,11.53,100.0,-55
10225,94.550,0.39,1.23,-0.88,0.44,-0.74,11.53,100.0,-55
10226,94.651,0.37,1.21,-0.93,0.44,-0.64,11.53,100.0,-55
10227,94.751,0.37,1.28,-0.93,0.49,-0.74,11.40,100.0,-55
10228,94.851,0.30,1.32,-0.98,0.49,-0.74,11.40,100.0,-55
10229,94.952,0.32,1.32,-0.98,0.49,-0.74,11.40,100.0,-55
10230,95.052,0.38,1.32,-0.98,0.49,-0.74,11.53,100.0,-63
10231,95.136,0.41,1.17,-0.88,0.44,-0.64,11.53,100.0,-63
10232,95.219,0.33,1.22,-0.88,0.49,-0.69,11.53,100.0,-63
10233,95.303,0.33,1.28,-0.93,0.54,-0.69,11.27,100.0,-63
10234,95.387,0.40,1.26,-0.93,0.49,-0.69,11.27,100.0,-63
10235,95.470,0.38,1.27,-0.88,0.54,-0.74,11.27,100.0,-63
10236,95.554,0.36,1.25,-0.98,0.44,-0.64,11.53,100.0,-55
10237,95.638,0.34,1.30,-1.03,0.39,-0.69,11.53,100.0,-55
10238,95.721,0.30,1.36,-1.08,0.54,-0.64,11.53,100.0,-55
10239,95.805,0.30,1.35,-1.03,0.59,-0.64,11.27,100.0,-55
10240,95.889,0.22,1.37,-1.03,0.59,-0.69,11.27,100.0,-55
10241,95.972,0.22,1.31,-0.98,0.54,-0.69,11.27,100.0,-55
10242,96.056,0.37,1.26,-0.64,0.15,-1.08,11.53,100.0,-58
10243,96.140,0.38,1.30,-0.64,0.10,-1.13,11.53,100.0,-58
10244,96.224,0.41,1.23,-0.49,0.05,-1.13,11.53,100.0,-58
10245,96.308,0.41,1.27,-0.59,0.05,-1.13,11.27,100.0,-58
10246,96.391,0.35,1.27,-0.59,0.10,-1.13,11.27,100.0,-58
10247,96.475,0.39,1.19,-0.59,0.00,-1.03,11.27,100.0,-58
10248,96.559,0.47,1.13,-0.44,0.15,-1.03,11.52,100.0,-54
10249,96.659,0.44,1.27,-0.54,0.24,-1.13,11.52,100.0,-54
10250,96.760,0.44,1.31,-0.29,0.49,-1.18,11.52,100.0,-54
10251,96.860,0.44,1.67,-0.83,0.24,-1.42,11.40,100.0,-54
10252,96.960,0.42,1.33,-0.39,0.00,-1.27,11.40,100.0,-54
10253,97.061,0.37,1.44,-0.44,-0.05,-1.37,11.40,100.0,-54
10254,97.161,0.43,1.28,0.10,-0.05,-1.27,11.53,100.0,-56
10255,97.245,0.37,1.38,0.10,-0.05,-1.37,11.53,100.0,-56
10256,97.328,0.45,1.38,0.10,0.00,-1.37,11.53,100.0,-56
10257,97.412,0.45,1.33,0.10,-0.05,-1.32,11.27,100.0,-56
10258,97.496,0.44,1.28,0.10,-0.05,-1.27,11.27,100.0,-56
10259,97.579,0.42,1.23,0.15,-0.05,-1.22,11.27,100.0,-56
10260,97.663,0.46,1.28,0.15,-0.05,-1.27,11.53,100.0,-60
10261,97.747,0.40,1.18,0.10,0.00,-1.18,11.53,100.0,-60
10262,97.830,0.35,1.28,0.15,0.00,-1.27,11.53,100.0,-60
10263,97.914,0.35,1.23,0.05,0.00,-1.22,11.27,100.0,-60
10264,97.998,0.31,1.27,0.00,0.00,-1.27,11.27,100.0,-60
10265,98.081,0.30,1.23,0.00,-0.05,-1.22,11.27,100.0,-60
10266,98.165,0.31,1.47,0.00,-0.05,-1.47,11.53,100.0,-60
10267,98.249,0.28,1.48,-0.39,-0.05,-1.42,11.53,100.0,-60
10268,98.332,0.28,1.62,-0.69,0.00,-1.47,11.53,100.0,-60
10269,98.416,0.31,1.43,-0.10,-0.05,-1.42,11.27,100.0,-60
10270,98.500,0.35,1.42,-0.05,0.00,-1.42,11.27,100.0,-60
10271,98.583,0.32,1.43,0.15,-0.05,-1.42,11.27,100.0,-60
10272,98.667,0.32,1.38,-0.10,0.05,-1.37,11.53,100.0,-65
10273,98.751,0.36,1.23,-0.05,0.00,-1.22,11.53,100.0,-65
10274,98.834,0.34,1.43,-0.05,0.10,-1.42,11.53,100.0,-65
10275,98.918,0.34,1.47,-0.05,0.10,-1.47,11.40,100.0,-65
10276,99.002,0.35,1.33,-0.10,0.05,-1.32,11.40,100.0,-65
10277,99.085,0.37,1.29,-0.15,0.10,-1.27,11.40,100.0,-65
10278,99.169,0.40,1.40,-0.54,0.20,-1.27,11.66,100.0,-60
10279,99.269,0.38,1.42,-0.59,0.24,-1.27,11.66,100.0,-60
10280,99.370,0.36,1.27,-0.54,0.24,-1.13,11.66,100.0,-60
10281,99.470,0.36,1.41,-0.54,0.29,-1.27,11.40,100.0,-60
10282,99.570,0.32,1.36,-0.54,0.24,-1.22,11.40,100.0,-60
10283,99.671,0.33,1.49,-0.54,0.24,-1.37,11.40,100.0,-60
10284,99.771,0.34,1.24,-0.78,0.24,-0.93,11.53,100.0,-58
10285,99.855,0.30,1.20,-0.78,0.20,-0.88,11.53,100.0,-58
10286,99.938,0.31,1.29,-0.83,0.15,-0.98,11.53,100.0,-58
10287,100.022,0.31,1.41,-0.88,0.20,-1.08,11.27,100.0,-58
10288,100.106,0.24,1.50,-0.88,0.29,-1.18,11.27,100.0,-58
10289,100.189,0.30,1.55,-0.88,0.34,-1.22,11.27,100.0,-58
10290,100.273,0.32,1.34,-0.98,0.54,-0.74,11.53,100.0,-76
10291,100.357,0.28,1.35,-0.88,0.59,-0.83,11.53,100.0,-76
10292,100.440,0.29,1.37,-0.93,0.64,-0.78,11.53,100.0,-76
10293,100.524,0.29,1.29,-0.88,0.59,-0.74,11.27,100.0,-76
10294,100.608,0.24,1.18,-0.83,0.59,-0.59,11.27,100.0,-76
10295,100.691,0.27,1.19,-0.78,0.64,-0.64,11.27,100.0,-76
10296,100.775,0.34,1.27,-0.88,0.74,-0.54,11.53,100.0,-60
10297,100.859,0.35,1.26,-0.88,0.69,-0.59,11.53,100.0,-60
10298,100.943,0.30,1.21,-0.88,0.59,-0.59,11.53,100.0,-60
10299,101.026,0.30,1.28,-0.83,0.64,-0.74,11.27,100.0,-60
10300,101.110,0.30,1.26,-0.88,0.59,-0.69,11.27,100.0,-60
10301,101.194,0.33,1.20,-0.83,0.59,-0.64,11.27,100.0,-60
10302,101.278,0.39,1.21,-0.93,0.64,-0.44,11.53,100.0,-67
10303,101.378,0.37,1.19,-0.93,0.59,-0.44,11.53,100.0,-67
10304,101.479,0.39,1.18,-0.93,0.64,-0.34,11.53,100.0,-67
10305,101.579,0.39,1.06,-0.83,0.59,-0.29,11.40,100.0,-67
10306,101.679,0.46,1.04,-0.78,0.59,-0.34,11.40,100.0,-67
10307,101.780,0.41,1.16,-0.88,0.64,-0.39,11.40,100.0,-67
10308,101.880,0.44,1.16,-0.88,0.69,-0.29,11.52,100.0,-63
10309,101.964,0.40,1.14,-0.88,0.69,-0.24,11.52,100.0,-63
10310,102.047,0.42,1.23,-0.93,0.74,-0.34,11.52,100.0,-63
10311,102.131,0.42,1.16,-0.88,0.69,-0.29,11.27,100.0,-63
10312,102.215,0.36,1.21,-0.93,0.74,-0.24,11.27,100.0,-63
10313,102.298,0.38,1.24,-0.93,0.78,-0.24,11.27,100.0,-63
10314,102.382,0.44,1.16,-0.88,0.69,-0.29,11.53,100.0,-57
10315,102.466,0.35,1.27,-0.98,0.74,-0.34,11.53,100.0,-57
10316,102.549,0.38,1.19,-0.93,0.69,-0.29,11.53,100.0,-57
10317,102.633,0.38,1.22,-0.93,0.69,-0.39,11.27,100.0,-57
10318,102.717,0.35,1.34,-1.03,0.78,-0.34,11.27,100.0,-57
10319,102.800,0.37,1.21,-0.93,0.74,-0.24,11.27,100.0,-57
10320,102.884,0.44,1.22,-0.98,0.69,-0.24,11.53,100.0,-57
10321,102.968,0.37,1.15,-0.93,0.64,-0.24,11.53,100.0,-57
10322,103.051,0.31,1.13,-0.93,0.59,-0.24,11.53,100.0,-57
10323,103.135,0.31,1.15,-0.93,0.64,-0.24,11.27,100.0,-57
10324,103.219,0.27,1.14,-0.93,0.64,-0.15,11.27,100.0,-57
10325,103.302,0.33,1.21,-0.98,0.69,-0.20,11.27,100.0,-57
10326,103.386,0.38,1.32,-1.08,0.74,-0.20,11.53,100.0,-61
10327,103.486,0.36,1.29,-1.03,0.74,-0.24,11.53,100.0,-61
10328,103.587,0.35,1.27,-1.03,0.74,-0.15,11.53,100.0,-61
10329,103.687,0.35,1.23,-0.98,0.69,-0.29,11.40,100.0,-61
10330,103.787,0.34,1.15,-0.83,0.74,-0.29,11.40,100.0,-61
10331,103.888,0.41,1.17,-0.88,0.69,-0.34,11.40,100.0,-61
10332,103.988,0.49,1.23,-0.98,0.69,-0.29,11.53,100.0,-67
10333,104.072,0.44,1.28,-1.03,0.74,-0.20,11.53,100.0,-67
10334,104.155,0.46,1.30,-1.03,0.74,-0.29,11.53,100.0,-67
10335,104.239,0.46,1.23,-0.98,0.69,-0.29,11.27,100.0,-67
10336,104.323,0.44,1.17,-0.98,0.59,-0.24,11.27,100.0,-67
10337,104.406,0.43,1.25,-0.98,0.74,-0.24,11.27,100.0,-67
10338,104.490,0.45,1.26,-0.98,0.74,-0.29,11.53,100.0,-67
10339,104.574,0.42,1.19,-0.98,0.64,-0.20,11.53,100.0,-67
10340,104.657,0.40,1.29,-1.03,0.74,-0.24,11.53,100.0,-67
10341,104.741,0.40,1.28,-1.03,0.74,-0.20,11.27,100.0,-67
10342,104.825,0.31,1.25,-1.03,0.69,-0.20,11.27,100.0,-67
10343,104.908,0.37,1.22,-0.98,0.69,-0.24,11.27,100.0,-67
10344,104.992,0.45,1.15,-0.93,0.64,-0.24,11.53,100.0,-57
10345,105.076,0.36,1.14,-0.88,0.69,-0.24,11.53,100.0,-57
10346,105.159,0.34,1.17,-0.93,0.64,-0.29,11.53,100.0,-57
10347,105.243,0.34,1.12,-0.88,0.64,-0.24,11.27,100.0,-57
10348,105.327,0.30,1.19,-0.93,0.69,-0.29,11.27,100.0,-57
10349,105.410,0.33,1.13,-0.88,0.64,-0.29,11.27,100.0,-57
10350,105.494,0.43,1.15,-0.93,0.64,-0.20,11.53,100.0,-56
10351,105.578,0.40,1.22,-0.98,0.69,-0.24,11.53,100.0,-56
10352,105.661,0.39,1.14,-0.93,0.59,-0.29,11.53,100.0,-56
10353,105.745,0.39,1.21,-0.98,0.64,-0.29,11.40,100.0,-56
10354,105.828,0.32,1.26,-0.98,0.69,-0.39,11.40,100.0,-56
10355,105.912,0.31,1.17,-0.93,0.59,-0.39,11.40,100.0,-56
10356,105.995,0.40,1.17,-0.98,0.59,-0.24,11.66,100.0,-67
10357,106.095,0.37,1.19,-0.98,0.64,-0.24,11.66,100.0,-67
10358,106.195,0.42,1.23,-1.03,0.64,-0.24,11.66,100.0,-67
10359,106.296,0.42,1.14,-0.93,0.59,-0.29,11.40,100.0,-67
10360,106.396,0.40,1.15,-0.93,0.64,-0.24,11.40,100.0,-67
10361,106.496,0.41,1.15,-0.93,0.64,-0.24,11.40,100.0,-67
10362,106.596,0.50,1.30,-1.18,0.49,-0.24,11.53,100.0,-57
10363,106.680,0.51,1.23,-1.08,0.49,-0.34,11.53,100.0,-57
10364,106.763,0.47,1.30,-1.13,0.54,-0.34,11.53,100.0,-57
10365,106.846,0.47,1.23,-1.08,0.49,-0.34,11.27,100.0,-57
10366,106.930,0.50,1.26,-1.08,0.59,-0.29,11.27,100.0,-57
10367,107.013,0.47,1.18,-1.03,0.49,-0.29,11.27,100.0,-57
10368,107.097,0.50,1.08,-0.98,0.39,-0.24,11.53,100.0,-83
10369,107.181,0.47,1.13,-0.98,0.44,-0.34,11.53,100.0,-83
10370,107.265,0.45,1.19,-1.03,0.49,-0.34,11.53,100.0,-83
10371,107.349,0.45,1.10,-0.98,0.39,-0.29,11.27,100.0,-83
10372,107.432,0.38,1.13,-1.08,0.29,-0.20,11.27,100.0,-83
10373,107.516,0.40,1.18,-1.08,0.34,-0.34,11.27,100.0,-83
10374,107.600,0.47,1.20,-1.13,0.24,-0.34,11.53,100.0,-55
10375,107.684,0.39,1.18,-1.13,0.24,-0.24,11.53,100.0,-55
10376,107.767,0.37,1.08,-0.98,0.24,-0.39,11.53,100.0,-55
10377,107.851,0.37,1.25,-1.18,0.20,-0.39,11.27,100.0,-55
10378,107.935,0.33,1.16,-1.13,0.20,-0.20,11.27,100.0,-55
10379,108.018,0.36,1.25,-1.18,0.24,-0.34,11.27,100.0,-55
10380,108.102,0.45,1.10,-0.98,0.24,-0.44,11.53,100.0,-51
10381,108.203,0.40,1.16,-1.03,0.29,-0.44,11.53,100.0,-51
10382,108.303,0.39,1.06,-0.98,0.29,-0.29,11.53,100.0,-51
10383,108.404,0.39,1.08,-0.98,0.24,-0.39,11.41,100.0,-51
10384,108.504,0.35,1.06,-0.93,0.24,-0.44,11.41,100.0,-51
10385,108.605,0.35,1.16,-1.08,0.20,-0.39,11.41,100.0,-51
10386,108.705,0.45,1.04,-0.98,0.29,-0.20,11.53,100.0,-55
10387,108.789,0.48,0.92,-0.88,0.20,-0.15,11.53,100.0,-55
10388,108.872,0.50,1.07,-1.03,0.20,-0.20,11.53,100.0,-55
10389,108.956,0.50,1.10,-1.03,0.24,-0.29,11.27,100.0,-55
10390,109.040,0.52,1.14,-1.03,0.34,-0.34,11.27,100.0,-55
10391,109.123,0.53,1.09,-1.03,0.24,-0.24,11.27,100.0,-55
10392,109.207,0.51,0.94,-0.93,0.10,-0.10,11.53,100.0,-52
10393,109.290,0.47,0.97,-0.93,0.15,-0.24,11.53,100.0,-52
10394,109.374,0.44,1.03,-0.98,0.20,-0.24,11.53,100.0,-52
10395,109.457,0.44,1.03,-0.98,0.15,-0.29,11.27,100.0,-52
10396,109.541,0.42,1.04,-0.98,0.10,-0.34,11.27,100.0,-52
10397,109.624,0.45,1.16,-1.08,0.15,-0.39,11.27,100.0,-52
10398,109.708,0.51,1.16,-1.03,0.05,-0.54,11.53,100.0,-58
10399,109.792,0.51,1.08,-0.93,0.10,-0.54,11.53,100.0,-58
10400,109.875,0.46,0.95,-0.83,0.10,-0.44,11.53,100.0,-58
10401,109.959,0.46,1.01,-0.88,0.05,-0.49,11.27,100.0,-58
10402,110.043,0.45,0.99,-0.88,0.05,-0.44,11.27,100.0,-58
10403,110.126,0.39,0.97,-0.83,0.05,-0.49,11.27,100.0,-58
10404,110.210,0.49,1.19,-1.13,0.05,-0.39,11.53,100.0,-65
10405,110.310,0.46,1.18,-1.13,0.10,-0.34,11.53,100.0,-65
10406,110.411,0.42,1.13,-1.08,0.05,-0.34,11.53,100.0,-65
10407,110.511,0.42,1.10,-1.03,0.05,-0.39,11.41,100.0,-65
10408,110.611,0.43,1.27,-1.13,0.05,-0.59,11.41,100.0,-65
10409,110.712,0.46,1.47,-1.32,0.05,-0.64,11.41,100.0,-65
10410,110.812,0.49,1.40,-1.27,0.39,-0.44,11.53,100.0,-74
10411,110.896,0.45,1.42,-1.27,0.39,-0.49,11.53,100.0,-74
10412,110.979,0.47,1.41,-1.27,0.34,-0.49,11.53,100.0,-74
10413,111.063,0.47,1.41,-1.27,0.34,-0.49,11.27,100.0,-74
10414,111.147,0.48,1.32,-1.22,0.29,-0.39,11.27,100.0,-74
10415,111.230,0.56,1.31,-1.22,0.34,-0.29,11.27,100.0,-74
10416,111.314,0.61,1.07,-1.03,0.10,-0.29,11.53,100.0,-73
10417,111.398,0.62,1.09,-1.03,0.10,-0.34,11.53,100.0,-73
10418,111.481,0.64,1.12,-1.03,0.10,-0.44,11.53,100.0,-73
10419,111.565,0.64,1.19,-1.13,0.05,-0.39,11.27,100.0,-73
10420,111.649,0.63,1.20,-1.13,0.10,-0.39,11.27,100.0,-73
10421,111.732,0.65,1.15,-1.08,0.05,-0.39,11.27,100.0,-73
10422,111.816,0.66,1.09,-0.93,0.20,-0.54,11.53,100.0,-80
10423,111.900,0.55,1.23,-1.08,0.24,-0.54,11.53,100.0,-80
10424,111.983,0.51,1.24,-1.13,0.20,-0.49,11.53,100.0,-80
10425,112.067,0.51,1.44,-1.32,0.20,-0.54,11.27,100.0,-80
10426,112.151,0.52,1.53,-1.42,0.15,-0.54,11.27,100.0,-80
10427,112.234,0.49,1.48,-1.37,0.15,-0.54,11.27,100.0,-80
10428,112.318,0.62,0.92,-0.83,0.00,-0.39,11.53,100.0,-83
10429,112.402,0.60,0.92,-0.83,0.00,-0.39,11.53,100.0,-83
10430,112.486,0.60,0.88,-0.78,0.00,-0.39,11.53,100.0,-83
10431,112.570,0.49,0.97,-0.88,0.00,-0.39,11.41,100.0,-83
10432,112.653,0.53,1.07,-0.98,0.00,-0.44,11.41,100.0,-83
10433,112.737,0.53,1.16,-1.03,-0.05,-0.54,11.41,100.0,-83
10434,112.821,0.49,1.04,-0.88,0.15,-0.54,11.66,100.0,-72
10435,112.921,0.41,1.07,-0.93,0.20,-0.49,11.66,100.0,-72
10436,113.021,0.46,1.04,-0.88,0.24,-0.49,11.66,100.0,-72
10437,113.121,0.46,1.02,-0.88,0.24,-0.44,11.41,100.0,-72
10438,113.222,0.47,1.15,-0.98,0.24,-0.54,11.41,100.0,-72
10439,113.322,0.46,1.27,-1.13,0.24,-0.54,11.41,100.0,-72
10440,113.422,0.52,1.17,-0.98,0.00,-0.64,11.53,100.0,-77
10441,113.506,0.57,1.01,-0.88,0.05,-0.49,11.53,100.0,-77
10442,113.589,0.57,1.02,-0.83,0.00,-0.59,11.53,100.0,-77
10443,113.673,0.56,0.91,-0.74,0.00,-0.54,11.27,100.0,-77
10444,113.757,0.52,0.99,-0.83,0.00,-0.54,11.27,100.0,-77
10445,113.840,0.52,1.12,-0.98,0.00,-0.54,11.27,100.0,-77
10446,113.924,0.56,1.26,-1.18,0.10,-0.44,11.53,100.0,-80
10447,114.008,0.48,1.16,-1.08,0.15,-0.39,11.53,100.0,-80
10448,114.091,0.48,1.14,-1.08,0.15,-0.34,11.53,100.0,-80
10449,114.175,0.48,1.11,-1.03,0.10,-0.39,11.27,100.0,-80
10450,114.259,0.46,1.11,-1.03,0.10,-0.39,11.27,100.0,-80
10451,114.342,0.45,1.11,-1.03,0.10,-0.39,11.27,100.0,-80
10452,114.426,0.57,0.91,-0.74,0.05,-0.54,11.53,100.0,-77
10453,114.510,0.49,0.92,-0.74,0.10,-0.54,11.53,100.0,-77
10454,114.593,0.55,1.11,-0.93,0.10,-0.59,11.53,100.0,-77
10455,114.677,0.55,1.16,-0.93,0.10,-0.69,11.27,100.0,-77
10456,114.761,0.54,1.20,-0.98,0.10,-0.69,11.27,100.0,-77
10457,114.844,0.51,1.28,-1.08,0.10,-0.69,11.27,100.0,-77
10458,114.928,0.58,1.02,-0.98,0.05,-0.29,11.53,100.0,-71
10459,115.028,0.58,0.95,-0.88,0.05,-0.34,11.53,100.0,-71
10460,115.129,0.62,1.03,-0.93,0.05,-0.44,11.53,100.0,-71
10461,115.229,0.62,0.97,-0.88,0.10,-0.39,11.40,100.0,-71
10462,115.329,0.64,1.04,-0.88,0.05,-0.54,11.40,100.0,-71
10463,115.430,0.68,1.04,-0.88,0.10,-0.54,11.40,100.0,-71
10464,115.530,0.69,1.16,-0.93,-0.05,-0.69,11.53,100.0,-67
10465,115.614,0.61,1.20,-0.98,-0.10,-0.69,11.53,100.0,-67
10466,115.698,0.60,1.20,-0.98,-0.05,-0.69,11.53,100.0,-67
10467,115.781,0.60,1.23,-0.98,-0.05,-0.74,11.27,100.0,-67
10468,115.865,0.55,1.26,-0.98,-0.05,-0.78,11.27,100.0,-67
10469,115.949,0.60,1.25,-0.93,-0.05,-0.83,11.27,100.0,-67
10470,116.033,0.67,1.22,-0.78,-0.05,-0.93,11.53,100.0,-67
10471,116.117,0.59,1.22,-0.78,-0.05,-0.93,11.53,100.0,-67
10472,116.200,0.51,1.22,-0.78,-0.10,-0.93,11.53,100.0,-67
10473,116.284,0.51,1.30,-0.78,-0.10,-1.03,11.27,100.0,-67
10474,116.368,0.43,1.22,-0.78,-0.05,-0.93,11.27,100.0,-67
10475,116.451,0.42,1.22,-0.78,-0.05,-0.93,11.27,100.0,-67
10476,116.535,0.46,1.25,-0.64,-0.05,-1.08,11.53,100.0,-72
10477,116.619,0.34,1.24,-0.69,0.00,-1.03,11.53,100.0,-72
10478,116.702,0.24,1.23,-0.59,-0.05,-1.08,11.53,100.0,-72
10479,116.786,0.24,1.25,-0.64,0.00,-1.08,11.27,100.0,-72
10480,116.870,0.11,1.28,-0.69,0.00,-1.08,11.27,100.0,-72
10481,116.953,0.08,1.36,-0.69,-0.05,-1.18,11.27,100.0,-72
10482,117.037,0.16,1.30,-0.54,-0.10,-1.18,11.53,100.0,-76
10483,117.121,0.10,1.29,-0.54,-0.05,-1.18,11.53,100.0,-76
10484,117.204,0.05,1.23,-0.49,-0.05,-1.13,11.53,100.0,-76
10485,117.288,0.05,1.16,-0.54,-0.05,-1.03,11.40,100.0,-76
10486,117.372,-0.09,1.25,-0.64,0.00,-1.08,11.40,100.0,-76
10487,117.455,-0.04,1.20,-0.69,-0.05,-0.98,11.40,100.0,-76
10488,117.539,-0.11,1.35,-0.44,-0.05,-1.27,11.66,100.0,-90
10489,117.639,-0.11,1.35,-0.39,-0.20,-1.27,11.66,100.0,-90
10490,117.740,-0.06,1.28,-0.44,-0.24,-1.18,11.66,100.0,-90
10491,117.840,-0.06,1.21,-0.44,-0.10,-1.13,11.40,100.0,-90
10492,117.940,-0.11,1.21,-0.24,-0.15,-1.18,11.40,100.0,-90
10493,118.041,-0.11,1.45,-0.29,0.00,-1.42,11.40,100.0,-90
10494,118.141,-0.02,1.17,-0.24,-0.20,-1.13,11.53,100.0,-76
10495,118.225,-0.06,1.06,-0.15,-0.20,-1.03,11.53,100.0,-76
10496,118.308,-0.12,1.24,0.00,-0.20,-1.22,11.53,100.0,-76
10497,118.392,-0.12,1.08,-0.05,-0.10,-1.08,11.27,100.0,-76
10498,118.476,-0.17,1.23,0.00,-0.10,-1.22,11.27,100.0,-76
10499,118.559,-0.15,1.62,0.00,-0.05,-1.62,11.27,100.0,-76
10500,118.643,-0.17,1.50,0.00,-0.78,-1.27,11.53,100.0,-74
10501,118.727,-0.29,1.47,0.10,-0.74,-1.27,11.53,100.0,-74
10502,118.810,-0.29,1.41,0.15,-0.69,-1.22,11.53,100.0,-74
10503,118.894,-0.30,1.20,0.10,-0.69,-0.98,11.27,100.0,-74
10504,118.978,-0.31,1.15,0.10,-0.59,-0.98,11.27,100.0,-74
10505,119.061,-0.22,1.11,0.15,-0.49,-0.98,11.27,100.0,-74
10506,119.145,-0.18,0.97,-0.05,-0.64,-0.74,11.53,100.0,-80
10507,119.229,-0.22,1.28,0.00,-0.69,-1.08,11.53,100.0,-80
10508,119.312,-0.21,0.84,0.00,-0.29,-0.78,11.53,100.0,-80
10509,119.396,-0.21,1.11,-0.15,0.39,-1.03,11.40,100.0,-80
10510,119.480,-0.24,1.25,0.15,-0.69,-1.03,11.40,100.0,-80
10511,119.563,-0.25,1.32,0.10,-0.49,-1.22,11.40,100.0,-80
10512,119.647,-0.23,0.97,-0.05,-0.64,-0.74,11.66,100.0,-79
10513,119.731,-0.22,0.97,-0.05,-0.64,-0.74,11.66,100.0,-79
10514,119.814,-0.27,0.91,-0.10,-0.59,-0.69,11.66,100.0,-79
10515,119.898,-0.27,0.92,-0.10,-0.54,-0.74,11.40,100.0,-79
10516,119.982,-0.32,0.87,-0.10,-0.64,-0.59,11.40,100.0,-79
10517,120.065,-0.29,0.94,-0.10,-0.69,-0.64,11.40,100.0,-79
10518,120.149,-0.18,1.25,0.05,-0.54,-1.13,11.66,100.0,-89
10519,120.249,-0.19,1.21,0.05,-0.44,-1.13,11.66,100.0,-89
10520,120.350,-0.18,1.24,0.10,-0.39,-1.18,11.66,100.0,-89
10521,120.450,-0.18,1.25,0.20,-0.39,-1.18,11.40,100.0,-89
10522,120.550,-0.25,1.31,0.15,-0.24,-1.27,11.40,100.0,-89
10523,120.651,-0.29,1.31,0.15,-0.24,-1.27,11.40,100.0,-89
10524,120.751,-0.13,1.33,-0.15,-0.10,-1.32,11.53,100.0,-77
10525,120.835,-0.13,1.28,-0.05,-0.10,-1.27,11.53,100.0,-77
10526,120.918,-0.10,1.23,-0.05,-0.15,-1.22,11.53,100.0,-77
10527,121.002,-0.10,1.23,-0.05,-0.15,-1.22,11.27,100.0,-77
10528,121.086,-0.11,1.35,0.00,-0.29,-1.32,11.27,100.0,-77
10529,121.169,-0.07,1.38,-0.05,-0.15,-1.37,11.27,100.0,-77
10530,121.253,-0.09,1.46,-0.05,-0.34,-1.42,11.53,100.0,-76
10531,121.337,-0.20,1.53,-0.10,-0.15,-1.52,11.53,100.0,-76
10532,121.420,-0.25,1.54,-0.20,-0.10,-1.52,11.53,100.0,-76
10533,121.504,-0.25,1.50,-0.20,-0.24,-1.47,11.27,100.0,-76
10534,121.588,-0.33,1.39,-0.10,-0.20,-1.37,11.27,100.0,-76
10535,121.671,-0.32,1.28,-0.05,-0.15,-1.27,11.27,100.0,-76
10536,121.755,-0.30,1.53,-0.10,0.15,-1.52,11.53,100.0,-75
10537,121.855,-0.35,1.58,0.00,0.15,-1.57,11.53,100.0,-75
10538,121.956,-0.29,1.32,0.00,-0.05,-1.32,11.53,100.0,-75
10539,122.056,-0.29,1.27,-0.05,0.00,-1.27,11.40,100.0,-75
10540,122.156,-0.30,1.49,0.10,0.24,-1.47,11.40,100.0,-75
10541,122.257,-0.30,1.28,0.00,0.15,-1.27,11.40,100.0,-75
10542,122.357,-0.16,1.67,0.15,-0.39,-1.62,11.53,100.0,-76
10543,122.441,-0.23,1.18,0.05,0.00,-1.18,11.53,100.0,-76
10544,122.524,-0.34,1.23,0.05,-0.05,-1.22,11.53,100.0,-76
10545,122.608,-0.34,1.33,0.05,-0.15,-1.32,11.27,100.0,-76
10546,122.692,-0.41,1.28,0.05,-0.05,-1.27,11.27,100.0,-76
10547,122.775,-0.38,1.23,0.05,-0.05,-1.22,11.27,100.0,-76
10548,122.859,-0.37,1.23,0.05,-0.05,-1.22,11.53,100.0,-84
10549,122.943,-0.44,1.28,0.05,-0.05,-1.27,11.53,100.0,-84
10550,123.027,-0.46,1.23,0.10,-0.10,-1.22,11.53,100.0,-84
10551,123.111,-0.46,1.18,0.05,-0.10,-1.18,11.27,100.0,-84
10552,123.194,-0.50,1.23,0.00,-0.05,-1.22,11.27,100.0,-84
10553,123.278,-0.50,1.23,0.05,-0.15,-1.22,11.27,100.0,-84
10554,123.362,-0.45,1.33,0.05,-0.10,-1.32,11.53,100.0,-81
10555,123.446,-0.53,1.01,0.05,-0.39,-0.93,11.53,100.0,-81
10556,123.529,-0.48,1.23,0.05,-0.05,-1.22,11.53,100.0,-81
10557,123.613,-0.48,1.29,0.10,-0.20,-1.27,11.27,100.0,-81
10558,123.697,-0.53,1.28,0.10,-0.34,-1.22,11.27,100.0,-81
10559,123.780,-0.49,1.23,0.10,-0.10,-1.22,11.27,100.0,-81
10560,123.864,-0.45,1.29,0.05,-0.20,-1.27,11.53,100.0,-79
10561,123.948,-0.41,1.23,0.00,-0.15,-1.22,11.53,100.0,-79
10562,124.031,-0.39,1.23,0.05,-0.15,-1.22,11.53,100.0,-79
10563,124.115,-0.39,1.23,0.05,-0.15,-1.22,11.40,100.0,-79
10564,124.199,-0.38,1.30,0.10,-0.24,-1.27,11.40,100.0,-79
10565,124.282,-0.45,1.19,0.05,-0.20,-1.18,11.40,100.0,-79
10566,124.366,-0.38,1.23,0.00,-0.15,-1.22,11.66,100.0,-73
10567,124.466,-0.46,1.19,0.05,-0.20,-1.18,11.66,100.0,-73
10568,124.567,-0.46,1.29,0.10,-0.20,-1.27,11.66,100.0,-73
10569,124.667,-0.49,1.20,0.05,-0.24,-1.18,11.40,100.0,-73
10570,124.767,-0.49,1.28,0.05,-0.15,-1.27,11.40,100.0,-73
10571,124.868,-0.52,1.24,0.05,-0.20,-1.22,11.40,100.0,-73
10572,124.968,-0.50,1.30,0.05,-0.24,-1.27,11.53,100.0,-74
10573,125.052,-0.59,1.20,0.05,-0.24,-1.18,11.53,100.0,-74
10574,125.135,-0.60,1.25,0.10,-0.24,-1.22,11.53,100.0,-74
10575,125.219,-0.60,1.24,0.05,-0.20,-1.22,11.27,100.0,-74
10576,125.303,-0.63,1.24,0.05,-0.20,-1.22,11.27,100.0,-74
10577,125.386,-0.54,1.23,0.05,-0.10,-1.22,11.27,100.0,-74
10578,125.470,-0.45,1.24,0.05,-0.20,-1.22,11.53,100.0,-70
10579,125.554,-0.47,1.24,0.05,-0.20,-1.22,11.53,100.0,-70
10580,125.637,-0.40,1.24,0.10,-0.20,-1.22,11.53,100.0,-70
10581,125.721,-0.40,1.20,0.05,-0.24,-1.18,11.27,100.0,-70
10582,125.805,-0.36,1.29,0.05,-0.20,-1.27,11.27,100.0,-70
10583,125.888,-0.42,1.20,0.05,-0.24,-1.18,11.27,100.0,-70
10584,125.972,-0.39,1.19,0.05,-0.20,-1.18,11.53,100.0,-70
10585,126.056,-0.42,1.24,0.05,-0.20,-1.22,11.53,100.0,-70
10586,126.139,-0.43,1.23,0.00,-0.15,-1.22,11.53,100.0,-70
10587,126.223,-0.43,1.23,0.05,-0.10,-1.22,11.27,100.0,-70
10588,126.307,-0.55,1.24,0.05,-0.20,-1.22,11.27,100.0,-70
10589,126.390,-0.51,1.28,0.05,-0.15,-1.27,11.27,100.0,-70
10590,126.474,-0.47,1.19,0.05,-0.20,-1.18,11.53,100.0,-70
10591,126.574,-0.43,1.23,0.05,-0.15,-1.22,11.53,100.0,-70
10592,126.675,-0.45,1.23,0.00,-0.15,-1.22,11.53,100.0,-70
10593,126.775,-0.45,1.23,0.05,-0.15,-1.22,11.40,100.0,-70
10594,126.875,-0.48,1.29,0.05,-0.20,-1.27,11.40,100.0,-70
10595,126.976,-0.51,1.19,0.05,-0.20,-1.18,11.40,100.0,-70
10596,127.076,-0.46,1.18,0.00,-0.15,-1.18,11.53,100.0,-70
10597,127.160,-0.46,1.24,0.10,-0.20,-1.22,11.53,100.0,-70
10598,127.243,-0.46,1.18,0.00,-0.15,-1.18,11.53,100.0,-70
10599,127.327,-0.54,1.19,0.05,-0.20,-1.18,11.27,100.0,-70
10600,127.411,-0.55,1.28,0.05,-0.15,-1.27,11.27,100.0,-70
10601,127.494,-0.51,1.19,0.05,-0.20,-1.18,11.27,100.0,-70
10602,127.578,-0.51,1.30,0.05,-0.24,-1.27,11.53,100.0,-72
10603,127.662,-0.62,1.24,0.10,-0.15,-1.22,11.53,100.0,-72
10604,127.745,-0.68,1.24,0.10,-0.15,-1.22,11.53,100.0,-72
10605,127.829,-0.68,1.24,0.05,-0.20,-1.22,11.27,100.0,-72
10606,127.913,-0.69,1.23,0.05,-0.15,-1.22,11.27,100.0,-72
10607,127.996,-0.73,1.28,0.05,-0.15,-1.27,11.27,100.0,-72
10608,128.080,-0.55,1.19,0.05,-0.15,-1.18,11.53,100.0,-75
10609,128.164,-0.62,1.26,0.05,-0.29,-1.22,11.53,100.0,-75
10610,128.248,-0.55,1.24,0.00,-0.20,-1.22,11.53,100.0,-75
10611,128.332,-0.55,1.23,0.05,-0.10,-1.22,11.27,100.0,-75
10612,128.415,-0.53,1.19,0.05,-0.15,-1.18,11.27,100.0,-75
10613,128.499,-0.49,1.24,0.00,-0.20,-1.22,11.27,100.0,-75
10614,128.583,-0.45,1.23,0.05,-0.15,-1.22,11.53,100.0,-76
10615,128.666,-0.51,1.24,0.05,-0.20,-1.22,11.53,100.0,-76
10616,128.750,-0.52,1.29,0.05,-0.20,-1.27,11.53,100.0,-76
10617,128.834,-0.52,1.23,0.00,-0.15,-1.22,11.27,100.0,-76
10618,128.917,-0.52,1.24,0.05,-0.20,-1.22,11.27,100.0,-76
10619,129.000,-0.59,1.23,0.05,-0.10,-1.22,11.27,100.0,-76
10620,129.084,-0.56,1.23,0.05,-0.15,-1.22,11.53,100.0,-72
10621,129.185,-0.56,1.19,0.05,-0.15,-1.18,11.53,100.0,-72
10622,129.285,-0.58,1.24,0.05,-0.20,-1.22,11.53,100.0,-72
10623,129.386,-0.58,1.23,0.05,-0.15,-1.22,11.40,100.0,-72
10624,129.486,-0.68,1.19,0.05,-0.20,-1.18,11.40,100.0,-72
10625,129.587,-0.67,1.28,0.05,-0.15,-1.27,11.40,100.0,-72
10626,129.687,-0.52,1.24,0.05,-0.20,-1.22,11.52,100.0,-76
10627,129.771,-0.53,1.20,0.05,-0.24,-1.18,11.52,100.0,-76
10628,129.855,-0.53,1.24,0.05,-0.20,-1.22,11.52,100.0,-76
10629,129.939,-0.53,1.29,0.00,-0.20,-1.27,11.27,100.0,-76
10630,130.022,-0.55,1.23,0.05,-0.15,-1.22,11.27,100.0,-76
10631,130.106,-0.55,1.24,0.05,-0.20,-1.22,11.27,100.0,-76
10632,130.190,-0.50,1.24,0.00,-0.20,-1.22,11.52,100.0,-77
10633,130.274,-0.54,1.34,0.05,-0.20,-1.32,11.52,100.0,-77
10634,130.357,-0.54,1.23,0.05,-0.15,-1.22,11.52,100.0,-77
10635,130.441,-0.59,1.28,0.05,-0.15,-1.27,11.27,100.0,-77
10636,130.525,-0.57,1.19,0.05,-0.20,-1.18,11.27,100.0,-77
10637,130.608,-0.51,1.23,0.05,-0.15,-1.22,11.27,100.0,-77
10638,130.692,-0.49,1.25,0.00,-0.24,-1.22,11.52,100.0,-72
10639,130.776,-0.55,1.23,0.05,-0.15,-1.22,11.52,100.0,-72
10640,130.859,-0.49,1.19,0.05,-0.20,-1.18,11.52,100.0,-72
10641,130.943,-0.49,1.23,0.00,-0.15,-1.22,11.40,100.0,-72
10642,131.027,-0.52,1.19,-0.05,-0.20,-1.18,11.40,100.0,-72
10643,131.110,-0.50,1.24,0.05,-0.20,-1.22,11.40,100.0,-72
10644,131.194,-0.40,1.23,0.05,-0.15,-1.22,11.66,100.0,-72
10645,131.294,-0.49,1.19,0.05,-0.20,-1.18,11.66,100.0,-72
10646,131.395,-0.46,1.19,0.05,-0.20,-1.18,11.66,100.0,-72
10647,131.495,-0.46,1.20,0.05,-0.24,-1.18,11.40,100.0,-72
10648,131.595,-0.60,1.24,0.05,-0.20,-1.22,11.40,100.0,-72
10649,131.696,-0.60,1.20,0.05,-0.24,-1.18,11.40,100.0,-72
10650,131.796,-0.54,1.24,0.00,-0.20,-1.22,11.52,100.0,-71
10651,131.880,-0.53,1.23,0.05,-0.15,-1.22,11.52,100.0,-71
10652,131.963,-0.53,1.19,0.05,-0.15,-1.18,11.52,100.0,-71
10653,132.047,-0.52,1.24,0.05,-0.20,-1.22,11.27,100.0,-71
10654,132.131,-0.52,1.23,0.05,-0.15,-1.22,11.27,100.0,-71
10655,132.214,-0.50,1.18,0.00,-0.10,-1.18,11.27,100.0,-71
10656,132.298,-0.45,1.23,0.05,-0.15,-1.22,11.52,100.0,-75
10657,132.382,-0.54,1.29,0.05,-0.20,-1.27,11.52,100.0,-75
10658,132.465,-0.54,1.25,0.05,-0.24,-1.22,11.52,100.0,-75
10659,132.549,-0.54,1.24,0.05,-0.20,-1.22,11.27,100.0,-75
10660,132.633,-0.60,1.25,0.05,-0.24,-1.22,11.27,100.0,-75
10661,132.716,-0.56,1.19,0.05,-0.15,-1.18,11.27,100.0,-75
10662,132.800,-0.52,1.25,0.05,-0.24,-1.22,11.52,100.0,-76
10663,132.884,-0.60,1.29,0.00,-0.20,-1.27,11.52,100.0,-76
10664,132.967,-0.56,1.23,0.05,-0.15,-1.22,11.52,100.0,-76
10665,133.051,-0.56,1.30,0.05,-0.24,-1.27,11.27,100.0,-76
10666,133.135,-0.53,1.23,0.00,-0.15,-1.22,11.27,100.0,-76
10667,133.218,-0.48,1.24,0.05,-0.20,-1.22,11.27,100.0,-76
10668,133.302,-0.47,1.19,0.00,-0.20,-1.18,11.52,100.0,-74
10669,133.386,-0.54,1.24,0.05,-0.20,-1.22,11.52,100.0,-74
10670,133.470,-0.58,1.24,0.05,-0.20,-1.22,11.52,100.0,-74
10671,133.554,-0.58,1.23,0.05,-0.15,-1.22,11.40,100.0,-74
10672,133.639,-0.53,1.19,0.05,-0.15,-1.18,11.40,100.0,-74
10673,133.723,-0.52,1.19,0.05,-0.15,-1.18,11.40,100.0,-74
10674,133.807,-0.42,1.19,0.05,-0.20,-1.18,11.65,100.0,-80
10675,133.907,-0.49,1.23,0.05,-0.15,-1.22,11.65,100.0,-80
10676,134.007,-0.49,1.19,0.05,-0.20,-1.18,11.65,100.0,-80
10677,134.106,-0.49,1.19,0.05,-0.20,-1.18,11.40,100.0,-80
10678,134.206,-0.49,1.29,0.05,-0.20,-1.27,11.40,100.0,-80
10679,134.306,-0.57,1.24,0.00,-0.20,-1.22,11.40,100.0,-80
10680,134.406,-0.49,1.23,0.05,-0.15,-1.22,11.52,100.0,-76
10681,134.490,-0.56,1.19,0.05,-0.15,-1.18,11.52,100.0,-76
10682,134.573,-0.50,1.24,0.05,-0.20,-1.22,11.52,100.0,-76
10683,134.657,-0.50,1.24,0.05,-0.20,-1.22,11.27,100.0,-76
10684,134.741,-0.59,1.25,0.10,-0.24,-1.22,11.27,100.0,-76
10685,134.824,-0.67,1.29,0.05,-0.20,-1.27,11.27,100.0,-76
10686,134.908,-0.56,1.29,0.00,-0.20,-1.27,11.52,100.0,-82
10687,134.992,-0.59,1.29,0.05,-0.20,-1.27,11.52,100.0,-82
10688,135.076,-0.59,1.24,0.05,-0.20,-1.22,11.52,100.0,-82
10689,135.159,-0.60,1.24,0.10,-0.15,-1.22,11.27,100.0,-82
10690,135.243,-0.55,1.23,0.05,-0.15,-1.22,11.27,100.0,-82
10691,135.327,-0.47,1.19,0.05,-0.20,-1.18,11.27,100.0,-82
10692,135.411,-0.43,1.19,0.05,-0.15,-1.18,11.52,100.0,-81
10693,135.495,-0.48,1.23,0.05,-0.15,-1.22,11.52,100.0,-81
10694,135.578,-0.49,1.29,0.05,-0.20,-1.27,11.52,100.0,-81
10695,135.662,-0.49,1.14,0.05,-0.15,-1.13,11.40,100.0,-81
10696,135.746,-0.48,1.24,0.05,-0.20,-1.22,11.40,100.0,-81
10697,135.829,-0.50,1.14,0.05,-0.20,-1.13,11.40,100.0,-81
10698,135.913,-0.48,1.19,0.05,-0.20,-1.18,11.66,100.0,-86
10699,136.013,-0.56,1.23,0.05,-0.10,-1.22,11.66,100.0,-86
10700,136.114,-0.58,1.24,0.05,-0.20,-1.22,11.66,100.0,-86
10701,136.214,-0.58,1.14,0.05,-0.15,-1.13,11.40,100.0,-86
10702,136.314,-0.59,1.29,0.05,-0.20,-1.27,11.40,100.0,-86
10703,136.415,-0.55,1.19,0.05,-0.20,-1.18,11.40,100.0,-86
10704,136.515,-0.53,1.19,0.05,-0.20,-1.18,11.52,100.0,-75
10705,136.599,-0.57,1.19,0.05,-0.15,-1.18,11.52,100.0,-75
10706,136.682,-0.56,1.19,0.05,-0.15,-1.18,11.52,100.0,-75
10707,136.766,-0.56,1.24,0.05,-0.20,-1.22,11.27,100.0,-75
10708,136.850,-0.51,1.24,0.05,-0.20,-1.22,11.27,100.0,-75
10709,136.933,-0.49,1.18,0.00,-0.15,-1.18,11.27,100.0,-75
10710,137.017,-0.45,1.25,0.05,-0.24,-1.22,11.52,100.0,-71
10711,137.101,-0.52,1.19,0.05,-0.20,-1.18,11.52,100.0,-71
10712,137.184,-0.49,1.19,0.05,-0.15,-1.18,11.52,100.0,-71
10713,137.268,-0.49,1.28,0.05,-0.15,-1.27,11.27,100.0,-71
10714,137.352,-0.60,1.24,0.05,-0.20,-1.22,11.27,100.0,-71
10715,137.435,-0.53,1.19,0.05,-0.20,-1.18,11.27,100.0,-71
10716,137.519,-0.43,1.24,0.05,-0.20,-1.22,11.52,100.0,-70
10717,137.603,-0.52,1.25,0.05,-0.24,-1.22,11.52,100.0,-70
10718,137.686,-0.47,1.25,0.05,-0.24,-1.22,11.52,100.0,-70
10719,137.770,-0.47,1.19,0.05,-0.20,-1.18,11.27,100.0,-70
10720,137.854,-0.54,1.29,0.05,-0.20,-1.27,11.27,100.0,-70
10721,137.937,-0.49,1.23,0.05,-0.15,-1.22,11.27,100.0,-70
10722,138.021,-0.46,1.25,0.05,-0.24,-1.22,11.52,100.0,-70
10723,138.105,-0.44,1.20,0.10,-0.20,-1.18,11.52,100.0,-70
10724,138.188,-0.49,1.19,0.05,-0.15,-1.18,11.52,100.0,-70
10725,138.272,-0.49,1.19,0.05,-0.15,-1.18,11.40,100.0,-70
10726,138.356,-0.53,1.23,0.00,-0.10,-1.22,11.40,100.0,-70
10727,138.439,-0.54,1.19,0.10,-0.15,-1.18,11.40,100.0,-70
10728,138.523,-0.53,1.24,0.05,-0.20,-1.22,11.66,100.0,-69
10729,138.623,-0.51,1.19,0.05,-0.20,-1.18,11.66,100.0,-69
10730,138.724,-0.55,1.19,0.05,-0.15,-1.18,11.66,100.0,-69
10731,138.824,-0.55,1.24,0.05,-0.20,-1.22,11.40,100.0,-69
10732,138.924,-0.58,1.29,0.05,-0.20,-1.27,11.40,100.0,-69
10733,139.025,-0.59,1.28,0.05,-0.15,-1.27,11.40,100.0,-69
10734,139.125,-0.48,1.23,0.05,-0.15,-1.22,11.53,100.0,-71
10735,139.209,-0.56,1.23,0.05,-0.15,-1.22,11.53,100.0,-71
10736,139.292,-0.51,1.23,0.05,-0.15,-1.22,11.53,100.0,-71
10737,139.376,-0.51,1.29,0.10,-0.20,-1.27,11.27,100.0,-71
10738,139.460,-0.58,1.19,0.05,-0.20,-1.18,11.27,100.0,-71
10739,139.543,-0.60,1.18,0.05,-0.10,-1.18,11.27,100.0,-71
10740,139.627,-0.50,1.29,0.05,-0.20,-1.27,11.53,100.0,-77
10741,139.711,-0.53,1.19,0.05,-0.15,-1.18,11.53,100.0,-77
10742,139.794,-0.52,1.18,0.10,-0.10,-1.18,11.53,100.0,-77
10743,139.878,-0.52,1.19,0.05,-0.15,-1.18,11.27,100.0,-77
10744,139.962,-0.56,1.15,0.05,-0.24,-1.13,11.27,100.0,-77
10745,140.045,-0.52,1.19,0.05,-0.20,-1.18,11.27,100.0,-77
10746,140.129,-0.49,1.25,0.05,-0.24,-1.22,11.53,100.0,-77
10747,140.213,-0.49,1.24,0.05,-0.20,-1.22,11.53,100.0,-77
10748,140.296,-0.54,1.58,-0.10,-0.20,-1.57,11.53,100.0,-77
10749,140.380,-0.54,1.23,0.10,-0.05,-1.22,11.40,100.0,-77
10750,140.464,-0.53,1.28,0.00,-0.15,-1.27,11.40,100.0,-77
10751,140.547,-0.54,1.15,0.05,-0.39,-1.08,11.40,100.0,-77
10752,140.631,-0.53,1.30,0.05,-0.24,-1.27,11.66,100.0,-82
10753,140.731,-0.56,1.19,0.00,-0.20,-1.18,11.66,100.0,-82
10754,140.832,-0.51,1.23,0.05,-0.15,-1.22,11.66,100.0,-82
10755,140.932,-0.51,1.13,0.00,-0.10,-1.13,11.40,100.0,-82
10756,141.032,-0.63,1.24,0.00,-0.20,-1.22,11.40,100.0,-82
10757,141.133,-0.61,1.24,0.05,-0.20,-1.22,11.40,100.0,-82
10758,141.233,-0.53,1.24,0.05,-0.20,-1.22,11.53,100.0,-98
10759,141.317,-0.54,1.18,0.00,-0.15,-1.18,11.53,100.0,-98
10760,141.400,-0.59,1.23,0.05,-0.10,-1.22,11.53,100.0,-98
10761,141.483,-0.59,1.18,0.00,-0.15,-1.18,11.27,100.0,-98
10762,141.567,-0.61,1.14,0.05,-0.20,-1.13,11.27,100.0,-98
10763,141.651,-0.63,1.28,0.05,-0.15,-1.27,11.27,100.0,-98
10764,141.734,-0.59,1.28,0.05,-0.15,-1.27,11.53,100.0,-77
10765,141.818,-0.59,1.29,0.05,-0.20,-1.27,11.53,100.0,-77
10766,141.901,-0.54,1.25,0.05,-0.24,-1.22,11.53,100.0,-77
10767,141.985,-0.54,1.19,0.05,-0.20,-1.18,11.27,100.0,-77
10768,142.069,-0.55,1.24,0.05,-0.20,-1.22,11.27,100.0,-77
10769,142.152,-0.56,1.23,0.05,-0.15,-1.22,11.27,100.0,-77
10770,142.236,-0.51,1.25,0.05,-0.24,-1.22,11.53,100.0,-84
10771,142.320,-0.52,1.24,0.10,-0.15,-1.22,11.53,100.0,-84
10772,142.403,-0.55,1.23,0.05,-0.15,-1.22,11.53,100.0,-84
10773,142.487,-0.55,1.24,0.05,-0.20,-1.22,11.27,100.0,-84
10774,142.571,-0.58,1.23,0.05,-0.15,-1.22,11.27,100.0,-84
10775,142.654,-0.53,1.23,0.05,-0.15,-1.22,11.27,100.0,-84
10776,142.738,-0.47,1.23,0.05,-0.15,-1.22,11.53,100.0,-82
10777,142.822,-0.54,1.24,0.05,-0.20,-1.22,11.53,100.0,-82
10778,142.905,-0.46,1.28,0.00,-0.15,-1.27,11.53,100.0,-82
10779,142.989,-0.46,1.29,0.05,-0.20,-1.27,11.40,100.0,-82
10780,143.073,-0.49,1.31,0.05,-0.29,-1.27,11.40,100.0,-82
10781,143.156,-0.46,1.29,0.05,-0.20,-1.27,11.40,100.0,-82
10782,143.240,-0.42,1.24,0.05,-0.20,-1.22,11.66,100.0,-82
10783,143.340,-0.51,1.23,0.00,-0.15,-1.22,11.66,100.0,-82
10784,143.441,-0.60,1.24,0.05,-0.20,-1.22,11.66,100.0,-82
10785,143.541,-0.60,1.23,0.05,-0.10,-1.22,11.40,100.0,-82
10786,143.641,-0.66,1.23,0.00,-0.10,-1.22,11.40,100.0,-82
10787,143.742,-0.60,1.29,0.05,-0.20,-1.27,11.40,100.0,-82
10788,143.842,-0.57,1.29,0.05,-0.20,-1.27,11.53,100.0,-81
10789,143.926,-0.51,1.25,0.05,-0.24,-1.22,11.53,100.0,-81
10790,144.010,-0.54,1.24,0.05,-0.20,-1.22,11.53,100.0,-81
10791,144.094,-0.54,1.24,0.05,-0.20,-1.22,11.27,100.0,-81
10792,144.177,-0.59,1.28,0.05,-0.15,-1.27,11.27,100.0,-81
10793,144.261,-0.63,1.28,0.00,-0.15,-1.27,11.27,100.0,-81
10794,144.345,-0.55,1.23,0.05,-0.15,-1.22,11.53,100.0,-83
10795,144.429,-0.62,1.23,0.05,-0.15,-1.22,11.53,100.0,-83
10796,144.512,-0.64,1.24,0.05,-0.20,-1.22,11.53,100.0,-83
10797,144.596,-0.64,1.28,0.05,-0.15,-1.27,11.27,100.0,-83
10798,144.680,-0.64,1.23,0.00,-0.15,-1.22,11.27,100.0,-83
10799,144.763,-0.70,1.28,0.05,-0.15,-1.27,11.27,100.0,-83
10800,144.847,-0.62,1.19,0.05,-0.15,-1.18,11.53,100.0,-85
10801,144.931,-0.66,1.28,0.05,-0.15,-1.27,11.53,100.0,-85
10802,145.014,-0.62,1.14,0.05,-0.20,-1.13,11.53,100.0,-85
10803,145.098,-0.62,1.24,0.10,-0.20,-1.22,11.40,100.0,-85
10804,145.182,-0.63,1.24,0.05,-0.20,-1.22,11.40,100.0,-85
10805,145.265,-0.60,1.25,0.05,-0.24,-1.22,11.40,100.0,-85
10806,145.349,-0.54,1.23,0.00,-0.15,-1.22,11.66,100.0,-83
10807,145.433,-0.59,1.24,0.05,-0.20,-1.22,11.66,100.0,-83
10808,145.516,-0.58,1.23,0.05,-0.15,-1.22,11.66,100.0,-83
10809,145.600,-0.58,1.23,0.05,-0.15,-1.22,11.40,100.0,-83
10810,145.684,-0.56,1.23,0.05,-0.15,-1.22,11.40,100.0,-83
10811,145.767,-0.50,1.29,0.05,-0.20,-1.27,11.40,100.0,-83
10812,145.851,-0.52,1.29,0.00,-0.20,-1.27,11.66,100.0,-77
10813,145.951,-0.57,1.24,0.00,-0.20,-1.22,11.66,100.0,-77
10814,146.052,-0.57,1.30,0.05,-0.24,-1.27,11.66,100.0,-77
10815,146.152,-0.61,1.28,0.05,-0.15,-1.27,11.40,100.0,-77
10816,146.252,-0.64,1.24,0.10,-0.15,-1.22,11.40,100.0,-77
10817,146.353,-0.57,1.20,0.05,-0.24,-1.18,11.40,100.0,-77
10818,146.453,-0.53,1.29,0.00,-0.20,-1.27,11.53,100.0,-80
10819,146.537,-0.63,1.24,0.05,-0.20,-1.22,11.53,100.0,-80
10820,146.620,-0.63,1.23,0.00,-0.15,-1.22,11.53,100.0,-80
10821,146.704,-0.68,1.23,0.00,-0.10,-1.22,11.27,100.0,-80
10822,146.788,-0.57,1.19,0.05,-0.20,-1.18,11.27,100.0,-80
10823,146.871,-0.57,1.25,0.05,-0.24,-1.22,11.27,100.0,-80
10824,146.955,-0.55,1.29,0.00,-0.20,-1.27,11.53,100.0,-83
10825,147.039,-0.54,1.23,0.05,-0.15,-1.22,11.53,100.0,-83
10826,147.122,-0.49,1.28,0.05,-0.15,-1.27,11.53,100.0,-83
10827,147.206,-0.49,1.14,0.05,-0.20,-1.13,11.27,100.0,-83
10828,147.290,-0.57,1.23,0.05,-0.15,-1.22,11.27,100.0,-83
10829,147.373,-0.56,1.23,0.00,-0.15,-1.22,11.27,100.0,-83
10830,147.457,-0.52,1.23,0.00,-0.10,-1.22,11.53,100.0,-76
10831,147.541,-0.53,1.23,0.05,-0.15,-1.22,11.53,100.0,-76
10832,147.624,-0.56,1.19,0.05,-0.20,-1.18,11.53,100.0,-76
10833,147.708,-0.56,1.23,0.05,-0.15,-1.22,11.40,100.0,-76
10834,147.792,-0.58,1.24,0.00,-0.20,-1.22,11.40,100.0,-76
10835,147.875,-0.64,1.29,0.10,-0.20,-1.27,11.40,100.0,-76
10836,147.959,-0.58,1.24,0.05,-0.20,-1.22,11.66,100.0,-74
10837,148.059,-0.67,1.19,0.05,-0.15,-1.18,11.66,100.0,-74
10838,148.160,-0.67,1.19,0.05,-0.15,-1.18,11.66,100.0,-74
10839,148.260,-0.67,1.23,0.00,-0.10,-1.22,11.40,100.0,-74
10840,148.360,-0.61,1.23,0.05,-0.10,-1.22,11.40,100.0,-74
10841,148.461,-0.56,1.23,0.00,-0.15,-1.22,11.40,100.0,-74
10842,148.561,-0.43,1.23,0.00,-0.15,-1.22,11.53,100.0,-87
10843,148.645,-0.45,1.28,0.05,-0.15,-1.27,11.53,100.0,-87
10844,148.728,-0.45,1.19,0.05,-0.20,-1.18,11.53,100.0,-87
10845,148.812,-0.54,1.23,0.05,-0.15,-1.22,11.27,100.0,-87
10846,148.896,-0.43,1.24,0.05,-0.20,-1.22,11.27,100.0,-87
10847,148.979,-0.39,1.18,0.05,-0.05,-1.18,11.27,100.0,-87
10848,149.063,-0.39,1.24,0.00,-0.20,-1.22,11.53,100.0,-83
10849,149.147,-0.42,1.24,0.05,-0.20,-1.22,11.53,100.0,-83
10850,149.230,-0.42,1.24,0.00,-0.20,-1.22,11.53,100.0,-83
10851,149.314,-0.42,1.23,0.05,-0.10,-1.22,11.27,100.0,-83
10852,149.398,-0.42,1.24,0.05,-0.20,-1.22,11.27,100.0,-83
10853,149.481,-0.36,1.28,0.05,-0.15,-1.27,11.27,100.0,-83
10854,149.565,-0.35,1.24,0.05,-0.20,-1.22,11.53,100.0,-81
10855,149.649,-0.45,1.20,0.05,-0.24,-1.18,11.53,100.0,-81
10856,149.733,-0.47,1.25,0.00,-0.24,-1.22,11.53,100.0,-81
10857,149.817,-0.47,1.14,0.05,-0.20,-1.13,11.40,100.0,-81
10858,149.900,-0.49,1.24,0.05,-0.20,-1.22,11.40,100.0,-81
10859,149.984,-0.46,1.23,0.05,-0.15,-1.22,11.40,100.0,-81
10860,150.068,-0.47,1.28,0.05,-0.15,-1.27,11.66,100.0,-81
10861,150.152,-0.51,1.20,0.10,-0.20,-1.18,11.66,100.0,-81
10862,150.235,-0.49,1.23,0.05,-0.15,-1.22,11.66,100.0,-81
10863,150.319,-0.49,1.23,0.00,-0.10,-1.22,11.40,100.0,-81
10864,150.403,-0.57,1.23,0.00,-0.15,-1.22,11.40,100.0,-81
10865,150.486,-0.53,1.29,0.10,-0.20,-1.27,11.40,100.0,-81
10866,150.570,-0.43,1.39,0.05,-0.24,-1.37,11.66,100.0,-82
10867,150.670,-0.53,1.23,0.00,-0.15,-1.22,11.66,100.0,-82
10868,150.771,-0.57,1.23,0.05,-0.10,-1.22,11.66,100.0,-82
10869,150.871,-0.57,1.18,0.05,-0.10,-1.18,11.40,100.0,-82
10870,150.971,-0.59,1.19,0.05,-0.20,-1.18,11.40,100.0,-82
10871,151.072,-0.55,1.23,0.05,-0.15,-1.22,11.40,100.0,-82
10872,151.172,-0.55,1.19,0.05,-0.15,-1.18,11.53,100.0,-82
10873,151.256,-0.59,1.25,0.05,-0.24,-1.22,11.53,100.0,-82
10874,151.339,-0.61,1.24,0.00,-0.20,-1.22,11.53,100.0,-82
10875,151.423,-0.61,1.28,0.05,-0.15,-1.27,11.27,100.0,-82
10876,151.507,-0.59,1.19,0.05,-0.15,-1.18,11.27,100.0,-82
10877,151.590,-0.58,1.18,0.00,-0.15,-1.18,11.27,100.0,-82
10878,151.674,-0.67,1.24,0.05,-0.20,-1.22,11.53,100.0,-81
10879,151.758,-0.67,1.28,0.00,-0.15,-1.27,11.53,100.0,-81
10880,151.841,-0.64,1.19,0.05,-0.15,-1.18,11.53,100.0,-81
10881,151.925,-0.64,1.23,0.05,-0.15,-1.22,11.27,100.0,-81
10882,152.009,-0.69,1.23,0.05,-0.15,-1.22,11.27,100.0,-81
10883,152.092,-0.63,1.28,0.00,-0.15,-1.27,11.27,100.0,-81
10884,152.176,-0.49,1.28,0.05,-0.15,-1.27,11.53,100.0,-82
10885,152.260,-0.53,1.28,0.00,-0.15,-1.27,11.53,100.0,-82
10886,152.344,-0.54,1.23,0.00,-0.15,-1.22,11.53,100.0,-82
10887,152.428,-0.54,1.24,0.00,-0.20,-1.22,11.40,100.0,-82
10888,152.511,-0.46,1.23,0.05,-0.15,-1.22,11.40,100.0,-82
10889,152.595,-0.51,1.24,0.05,-0.20,-1.22,11.40,100.0,-82
10890,152.679,-0.47,1.24,0.05,-0.20,-1.22,11.66,100.0,-90
10891,152.779,-0.49,1.28,0.00,-0.15,-1.27,11.66,100.0,-90
10892,152.879,-0.48,1.30,0.05,-0.24,-1.27,11.66,100.0,-90
10893,152.980,-0.48,1.24,0.05,-0.20,-1.22,11.40,100.0,-90
10894,153.080,-0.49,1.29,0.05,-0.20,-1.27,11.40,100.0,-90
10895,153.180,-0.47,1.24,0.05,-0.20,-1.22,11.40,100.0,-90
10896,153.280,-0.31,1.19,0.05,-0.15,-1.18,11.53,100.0,-89
10897,153.364,-0.36,1.29,0.05,-0.20,-1.27,11.53,100.0,-89
10898,153.447,-0.47,1.19,0.05,-0.20,-1.18,11.53,100.0,-89
10899,153.531,-0.47,1.18,0.05,-0.10,-1.18,11.27,100.0,-89
10900,153.615,-0.57,1.28,0.05,-0.15,-1.27,11.27,100.0,-89
10901,153.698,-0.55,1.23,0.05,-0.10,-1.22,11.27,100.0,-89
10902,153.782,-0.52,1.34,0.05,-0.20,-1.32,11.53,100.0,-79
10903,153.866,-0.54,1.24,0.05,-0.20,-1.22,11.53,100.0,-79
10904,153.949,-0.55,1.28,0.05,-0.15,-1.27,11.53,100.0,-79
10905,154.033,-0.55,1.24,0.10,-0.15,-1.22,11.27,100.0,-79
10906,154.117,-0.60,1.28,0.05,-0.15,-1.27,11.27,100.0,-79
10907,154.200,-0.63,1.28,0.05,-0.15,-1.27,11.27,100.0,-79
10908,154.284,-0.56,1.23,0.05,-0.15,-1.22,11.53,100.0,-79
10909,154.368,-0.59,1.24,0.05,-0.20,-1.22,11.53,100.0,-79
10910,154.451,-0.54,1.20,0.05,-0.24,-1.18,11.53,100.0,-79
10911,154.535,-0.54,1.29,0.10,-0.15,-1.27,11.27,100.0,-79
10912,154.619,-0.59,1.23,0.05,-0.10,-1.22,11.27,100.0,-79
10913,154.702,-0.57,1.28,0.05,-0.15,-1.27,11.27,100.0,-79
10914,154.786,-0.51,1.24,0.00,-0.20,-1.22,11.53,100.0,-77
10915,154.870,-0.60,1.29,0.05,-0.20,-1.27,11.53,100.0,-77
10916,154.953,-0.60,1.20,0.05,-0.24,-1.18,11.53,100.0,-77
10917,155.037,-0.54,1.19,0.05,-0.15,-1.18,11.40,100.0,-77
10918,155.121,-0.55,1.29,0.05,-0.20,-1.27,11.40,100.0,-77
10919,155.204,-0.45,1.34,0.05,-0.20,-1.32,11.40,100.0,-77
10920,155.288,-0.49,1.29,0.05,-0.20,-1.27,11.66,100.0,-82
10921,155.388,-0.49,1.19,0.05,-0.20,-1.18,11.66,100.0,-82
10922,155.489,-0.49,1.24,0.05,-0.20,-1.22,11.66,100.0,-82
10923,155.589,-0.49,1.24,0.05,-0.20,-1.22,11.40,100.0,-82
10924,155.689,-0.57,1.24,0.00,-0.20,-1.22,11.40,100.0,-82
10925,155.790,-0.55,1.29,0.05,-0.20,-1.27,11.40,100.0,-82
10926,155.890,-0.58,1.15,0.00,-0.24,-1.13,11.53,100.0,-72
10927,155.974,-0.60,1.16,0.00,-0.29,-1.13,11.53,100.0,-72
10928,156.057,-0.60,1.48,0.05,-0.39,-1.42,11.53,100.0,-72
10929,156.141,-0.59,1.16,0.10,-0.24,-1.13,11.27,100.0,-72
10930,156.225,-0.61,1.19,0.05,-0.20,-1.18,11.27,100.0,-72
10931,156.308,-0.58,1.25,0.00,-0.24,-1.22,11.27,100.0,-72
10932,156.392,-0.54,1.46,-0.44,-0.24,-1.37,11.53,100.0,-71
10933,156.476,-0.52,1.93,0.29,-0.74,-1.76,11.53,100.0,-71
10934,156.560,-0.49,1.55,0.10,0.29,-1.52,11.53,100.0,-71
10935,156.644,-0.49,0.51,-0.05,-0.15,-0.49,11.27,100.0,-71
10936,156.727,-0.45,0.70,-0.10,0.10,-0.69,11.27,100.0,-71
10937,156.811,-0.44,0.84,-0.10,-0.59,-0.59,11.27,100.0,-71
10938,156.895,-0.43,0.67,0.15,-0.29,0.59,11.53,100.0,-71
10939,156.979,-0.50,0.51,-0.05,-0.49,0.15,11.53,100.0,-71
10940,157.062,-0.50,0.56,0.05,-0.39,0.39,11.53,100.0,-71
10941,157.146,-0.50,0.59,-0.05,-0.44,0.39,11.40,100.0,-71
10942,157.230,-0.53,0.59,0.00,-0.39,0.44,11.40,100.0,-71
10943,157.313,-0.54,0.45,-0.05,-0.29,0.34,11.40,100.0,-71
10944,157.397,-0.50,0.57,-0.05,-0.49,0.29,11.66,100.0,-71
10945,157.481,-0.56,0.59,-0.15,-0.54,0.20,11.66,100.0,-71
10946,157.564,-0.56,0.60,-0.05,-0.49,0.34,11.66,100.0,-71
10947,157.648,-0.56,0.60,0.00,-0.49,0.34,11.40,100.0,-71
10948,157.732,-0.59,0.55,-0.15,-0.44,0.29,11.40,100.0,-71
10949,157.815,-0.51,0.53,-0.05,-0.44,0.29,11.40,100.0,-71
10950,157.899,-0.55,0.48,0.00,-0.44,0.20,11.66,100.0,-73
10951,157.999,-0.68,0.62,0.05,-0.54,0.29,11.66,100.0,-73
10952,158.100,-0.68,0.60,0.00,-0.49,0.34,11.66,100.0,-73
10953,158.200,-0.70,0.60,0.00,-0.49,0.34,11.40,100.0,-73
10954,158.300,-0.68,0.57,0.00,-0.54,0.20,11.40,100.0,-73
10955,158.401,-0.68,0.64,0.00,-0.59,0.24,11.40,100.0,-73
10956,158.501,-0.72,0.84,-0.05,0.64,0.54,11.53,100.0,-72
10957,158.585,-0.72,0.81,-0.10,0.64,0.49,11.53,100.0,-72
10958,158.668,-0.67,0.81,-0.05,0.64,0.49,11.53,100.0,-72
10959,158.752,-0.67,0.83,-0.05,0.59,0.59,11.27,100.0,-72
10960,158.836,-0.64,0.84,-0.10,0.64,0.54,11.27,100.0,-72
10961,158.919,-0.59,0.84,-0.10,0.64,0.54,11.27,100.0,-72
10962,159.003,-0.56,0.84,-0.05,0.64,0.54,11.53,100.0,-70
10963,159.087,-0.61,0.85,-0.10,0.69,0.49,11.53,100.0,-70
10964,159.170,-0.59,0.89,-0.05,0.74,0.49,11.53,100.0,-70
10965,159.254,-0.59,0.84,-0.05,0.69,0.49,11.27,100.0,-70
10966,159.338,-0.56,0.81,-0.05,0.64,0.49,11.27,100.0,-70
10967,159.421,-0.58,0.87,-0.05,0.69,0.54,11.27,100.0,-70
10968,159.505,-0.53,0.87,-0.05,0.69,0.54,11.53,100.0,-70
10969,159.589,-0.52,0.80,-0.10,0.59,0.54,11.53,100.0,-70
10970,159.672,-0.46,0.94,-0.10,0.69,0.64,11.53,100.0,-70
10971,159.756,-0.46,0.87,-0.05,0.69,0.54,11.40,100.0,-70
10972,159.840,-0.52,0.81,-0.05,0.64,0.49,11.40,100.0,-70
10973,159.923,-0.49,0.80,-0.05,0.59,0.54,11.40,100.0,-70
10974,160.007,-0.50,0.80,-0.05,0.59,0.54,11.66,100.0,-72
10975,160.107,-0.53,0.87,-0.05,0.64,0.59,11.66,100.0,-72
10976,160.208,-0.52,0.89,-0.10,0.74,0.49,11.66,100.0,-72
10977,160.308,-0.52,0.91,-0.10,0.69,0.59,11.40,100.0,-72
10978,160.408,-0.60,0.81,-0.10,0.64,0.49,11.40,100.0,-72
10979,160.509,-0.50,0.78,-0.10,0.64,0.44,11.40,100.0,-72
10980,160.609,-0.51,0.87,-0.05,0.64,0.59,11.53,100.0,-73
10981,160.693,-0.54,0.81,-0.05,0.64,0.49,11.53,100.0,-73
10982,160.776,-0.50,0.87,-0.05,0.69,0.54,11.53,100.0,-73
10983,160.860,-0.50,0.91,-0.10,0.69,0.59,11.27,100.0,-73
10984,160.944,-0.51,0.84,-0.05,0.69,0.49,11.27,100.0,-73
10985,161.027,-0.57,0.84,-0.05,0.64,0.54,11.27,100.0,-73
10986,161.111,-0.50,0.91,-0.05,0.69,0.59,11.53,100.0,-71
10987,161.195,-0.55,0.84,-0.05,0.64,0.54,11.53,100.0,-71
10988,161.278,-0.55,0.84,-0.05,0.69,0.49,11.53,100.0,-71
10989,161.362,-0.55,0.87,-0.05,0.69,0.54,11.27,100.0,-71
10990,161.446,-0.58,0.87,0.00,0.64,0.59,11.27,100.0,-71
10991,161.529,-0.57,0.81,-0.05,0.64,0.49,11.27,100.0,-71
10992,161.613,-0.52,0.87,-0.05,0.69,0.54,11.53,100.0,-70
10993,161.697,-0.56,0.84,-0.05,0.64,0.54,11.53,100.0,-70
10994,161.780,-0.55,0.80,-0.05,0.59,0.54,11.53,100.0,-70
10995,161.864,-0.55,0.87,-0.10,0.64,0.59,11.40,100.0,-70
10996,161.948,-0.56,0.87,-0.05,0.64,0.59,11.40,100.0,-70
10997,162.031,-0.46,0.77,0.00,0.64,0.44,11.40,100.0,-70
10998,162.115,-0.38,0.80,-0.05,0.59,0.54,11.66,100.0,-71
10999,162.199,-0.42,0.88,-0.10,0.69,0.54,11.66,100.0,-71
11000,162.283,-0.49,0.84,-0.05,0.64,0.54,11.66,100.0,-71
11001,162.367,-0.49,0.91,-0.05,0.69,0.59,11.40,100.0,-71
11002,162.450,-0.50,0.88,-0.10,0.69,0.54,11.40,100.0,-71
11003,162.534,-0.50,0.85,-0.10,0.69,0.49,11.40,100.0,-71
11004,162.618,-0.55,0.80,-0.05,0.59,0.54,11.66,100.0,-69
11005,162.718,-0.55,0.84,-0.10,0.64,0.54,11.66,100.0,-69
11006,162.819,-0.51,0.84,-0.05,0.64,0.54,11.66,100.0,-69
11007,162.919,-0.51,0.87,-0.10,0.64,0.59,11.40,100.0,-69
11008,163.019,-0.60,0.88,-0.10,0.69,0.54,11.40,100.0,-69
11009,163.120,-0.57,0.84,-0.05,0.64,0.54,11.40,100.0,-69
11010,163.220,-0.49,0.80,-0.05,0.59,0.54,11.53,100.0,-70
11011,163.304,-0.51,0.81,-0.05,0.64,0.49,11.53,100.0,-70
11012,163.387,-0.55,0.87,-0.05,0.69,0.54,11.53,100.0,-70
11013,163.471,-0.55,0.85,-0.10,0.69,0.49,11.27,100.0,-70
11014,163.555,-0.64,0.77,-0.05,0.59,0.49,11.27,100.0,-70
11015,163.638,-0.60,0.80,-0.05,0.59,0.54,11.27,100.0,-70
11016,163.722,-0.59,0.83,-0.05,0.59,0.59,11.53,100.0,-72
11017,163.806,-0.61,0.81,-0.05,0.64,0.49,11.53,100.0,-72
11018,163.890,-0.60,0.87,-0.05,0.69,0.54,11.53,100.0,-72
11019,163.974,-0.60,0.84,-0.10,0.64,0.54,11.27,100.0,-72
11020,164.057,-0.60,0.80,-0.05,0.59,0.54,11.27,100.0,-72
11021,164.141,-0.60,0.86,-0.15,0.69,0.49,11.27,100.0,-72
11022,164.225,-0.48,0.81,-0.05,0.64,0.49,11.52,100.0,-72
11023,164.308,-0.47,0.84,-0.05,0.64,0.54,11.52,100.0,-72
11024,164.392,-0.46,0.88,-0.10,0.69,0.54,11.52,100.0,-72
11025,164.476,-0.46,0.84,-0.10,0.64,0.54,11.40,100.0,-72
11026,164.559,-0.52,0.77,-0.05,0.59,0.49,11.40,100.0,-72
11027,164.642,-0.49,0.84,-0.05,0.69,0.49,11.40,100.0,-72
11028,164.726,-0.42,0.84,-0.05,0.64,0.54,11.66,100.0,-71
11029,164.826,-0.51,0.84,-0.10,0.64,0.54,11.66,100.0,-71
11030,164.926,-0.52,0.84,-0.05,0.64,0.54,11.66,100.0,-71
11031,165.026,-0.52,0.84,-0.05,0.64,0.54,11.40,100.0,-71
11032,165.127,-0.57,0.84,-0.05,0.64,0.54,11.40,100.0,-71
11033,165.227,-0.55,0.81,-0.10,0.64,0.49,11.40,100.0,-71
11034,165.327,-0.48,0.77,0.00,0.64,0.44,11.53,100.0,-70
11035,165.411,-0.49,0.85,-0.10,0.69,0.49,11.53,100.0,-70
11036,165.494,-0.49,0.84,-0.05,0.64,0.54,11.53,100.0,-70
11037,165.578,-0.51,0.80,-0.05,0.59,0.54,11.27,100.0,-70
11038,165.662,-0.45,0.84,-0.05,0.64,0.54,11.27,100.0,-70
11039,165.745,-0.51,0.80,-0.05,0.59,0.54,11.27,100.0,-70
11040,165.829,-0.54,0.81,-0.05,0.64,0.49,11.53,100.0,-70
11041,165.913,-0.55,0.87,0.00,0.64,0.59,11.53,100.0,-70
11042,165.996,-0.49,0.87,-0.10,0.64,0.59,11.53,100.0,-70
11043,166.080,-0.49,0.87,0.00,0.64,0.59,11.27,100.0,-70
11044,166.164,-0.58,0.87,-0.10,0.64,0.59,11.27,100.0,-70
11045,166.247,-0.49,0.81,-0.05,0.64,0.49,11.27,100.0,-70
11046,166.331,-0.50,0.85,-0.15,0.64,0.54,11.53,100.0,-70
11047,166.415,-0.56,0.77,-0.10,0.59,0.49,11.53,100.0,-70
11048,166.498,-0.60,0.84,-0.05,0.64,0.54,11.53,100.0,-70
11049,166.582,-0.60,0.84,-0.05,0.64,0.54,11.27,100.0,-70
11050,166.666,-0.60,0.82,-0.05,0.69,0.44,11.27,100.0,-70
11051,166.749,-0.61,0.87,-0.10,0.64,0.59,11.27,100.0,-70
11052,166.833,-0.52,0.77,-0.05,0.59,0.49,11.53,100.0,-70
11053,166.933,-0.48,0.84,-0.05,0.64,0.54,11.53,100.0,-70
11054,167.034,-0.50,0.84,-0.05,0.64,0.54,11.53,100.0,-70
11055,167.134,-0.50,0.87,-0.10,0.64,0.59,11.40,100.0,-70
11056,167.234,-0.49,0.81,-0.05,0.64,0.49,11.40,100.0,-70
11057,167.335,-0.56,0.87,-0.05,0.64,0.59,11.40,100.0,-70
11058,167.435,-0.48,0.84,-0.10,0.64,0.54,11.53,100.0,-70
11059,167.519,-0.45,0.81,-0.10,0.64,0.49,11.53,100.0,-70
11060,167.602,-0.47,0.84,-0.05,0.64,0.54,11.53,100.0,-70
11061,167.686,-0.47,0.80,0.00,0.59,0.54,11.27,100.0,-70
11062,167.770,-0.50,0.87,-0.10,0.64,0.59,11.27,100.0,-70
11063,167.853,-0.44,0.87,-0.10,0.64,0.59,11.27,100.0,-70
11064,167.937,-0.41,0.80,0.00,0.59,0.54,11.53,100.0,-69
11065,168.021,-0.48,0.84,-0.05,0.64,0.54,11.53,100.0,-69
11066,168.105,-0.48,0.87,-0.10,0.64,0.59,11.53,100.0,-69
11067,168.189,-0.55,0.80,-0.05,0.59,0.54,11.27,100.0,-69
11068,168.272,-0.57,0.83,0.00,0.64,0.54,11.27,100.0,-69
11069,168.356,-0.57,0.81,0.05,0.64,0.49,11.27,100.0,-69
11070,168.440,-0.57,0.84,-0.05,0.64,0.54,11.53,100.0,-71
11071,168.524,-0.50,0.84,-0.05,0.64,0.54,11.53,100.0,-71
11072,168.607,-0.51,0.78,-0.10,0.64,0.44,11.53,100.0,-71
11073,168.691,-0.51,0.84,-0.10,0.64,0.54,11.27,100.0,-71
11074,168.775,-0.63,0.84,-0.05,0.64,0.54,11.27,100.0,-71
11075,168.858,-0.54,0.77,-0.05,0.59,0.49,11.27,100.0,-71
11076,168.942,-0.53,0.87,-0.05,0.64,0.59,11.53,100.0,-72
11077,169.026,-0.58,0.91,-0.10,0.69,0.59,11.53,100.0,-72
11078,169.109,-0.58,0.84,-0.05,0.64,0.54,11.53,100.0,-72
11079,169.193,-0.58,0.83,-0.05,0.59,0.59,11.40,100.0,-72
11080,169.277,-0.64,0.84,-0.05,0.64,0.54,11.40,100.0,-72
11081,169.360,-0.61,0.87,-0.10,0.64,0.59,11.40,100.0,-72
11082,169.444,-0.55,0.87,-0.05,0.64,0.59,11.66,100.0,-69
11083,169.544,-0.61,0.87,-0.10,0.64,0.59,11.66,100.0,-69
11084,169.645,-0.58,0.83,-0.05,0.59,0.59,11.66,100.0,-69
11085,169.745,-0.58,0.84,-0.05,0.64,0.54,11.40,100.0,-69
11086,169.845,-0.56,0.77,-0.05,0.59,0.49,11.40,100.0,-69
11087,169.946,-0.54,0.84,-0.05,0.64,0.54,11.40,100.0,-69
11088,170.046,-0.48,0.84,-0.10,0.59,0.59,11.53,100.0,-69
11089,170.130,-0.50,0.84,-0.05,0.64,0.54,11.53,100.0,-69
11090,170.213,-0.51,0.83,-0.05,0.59,0.59,11.53,100.0,-69
11091,170.297,-0.51,0.84,-0.10,0.59,0.59,11.27,100.0,-69
11092,170.381,-0.56,0.91,-0.05,0.69,0.59,11.27,100.0,-69
11093,170.464,-0.56,0.83,-0.05,0.59,0.59,11.27,100.0,-69
11094,170.548,-0.54,0.84,-0.05,0.64,0.54,11.53,100.0,-70
11095,170.632,-0.55,0.81,-0.05,0.64,0.49,11.53,100.0,-70
11096,170.715,-0.47,0.84,-0.10,0.64,0.54,11.53,100.0,-70
11097,170.799,-0.47,0.87,-0.05,0.64,0.59,11.27,100.0,-70
11098,170.883,-0.48,0.80,0.00,0.64,0.49,11.27,100.0,-70
11099,170.966,-0.45,0.84,-0.05,0.64,0.54,11.27,100.0,-70
11100,171.050,-0.46,0.80,-0.05,0.59,0.54,11.53,100.0,-71
11101,171.134,-0.54,0.77,-0.05,0.59,0.49,11.53,100.0,-71
11102,171.217,-0.46,0.83,-0.05,0.59,0.59,11.53,100.0,-71
11103,171.301,-0.46,0.80,0.00,0.59,0.54,11.27,100.0,-71
11104,171.385,-0.52,0.84,-0.05,0.69,0.49,11.27,100.0,-71
11105,171.468,-0.51,0.84,-0.05,0.64,0.54,11.27,100.0,-71
11106,171.552,-0.40,0.84,-0.05,0.64,0.54,11.53,100.0,-71
11107,171.652,-0.47,0.84,-0.10,0.64,0.54,11.53,100.0,-71
11108,171.753,-0.50,0.87,-0.10,0.64,0.59,11.53,100.0,-71
11109,171.853,-0.50,0.80,-0.10,0.59,0.54,11.40,100.0,-71
11110,171.953,-0.58,0.87,0.00,0.69,0.54,11.40,100.0,-71
11111,172.054,-0.59,0.77,-0.05,0.59,0.49,11.40,100.0,-71
11112,172.154,-0.54,0.84,-0.05,0.64,0.54,11.53,100.0,-71
11113,172.238,-0.56,0.82,-0.10,0.69,0.44,11.53,100.0,-71
11114,172.321,-0.53,0.88,-0.10,0.69,0.54,11.53,100.0,-71
11115,172.405,-0.53,0.84,-0.05,0.69,0.49,11.27,100.0,-71
11116,172.489,-0.63,0.81,-0.05,0.64,0.49,11.27,100.0,-71
11117,172.572,-0.56,0.83,-0.05,0.59,0.59,11.27,100.0,-71
11118,172.656,-0.50,0.84,-0.05,0.64,0.54,11.53,100.0,-71
11119,172.740,-0.57,0.84,-0.05,0.64,0.54,11.53,100.0,-71
11120,172.824,-0.54,0.81,-0.10,0.64,0.49,11.53,100.0,-71
11121,172.907,-0.54,0.81,-0.10,0.64,0.49,11.27,100.0,-71
11122,172.991,-0.62,0.87,-0.05,0.64,0.59,11.27,100.0,-71
11123,173.075,-0.64,0.77,0.00,0.59,0.49,11.27,100.0,-71
11124,173.159,-0.63,0.81,-0.05,0.64,0.49,11.53,100.0,-70
11125,173.243,-0.60,0.80,0.00,0.59,0.54,11.53,100.0,-70
11126,173.326,-0.61,0.80,0.00,0.64,0.49,11.53,100.0,-70
11127,173.409,-0.61,0.74,-0.05,0.59,0.44,11.27,100.0,-70
11128,173.493,-0.59,0.78,-0.10,0.64,0.44,11.27,100.0,-70
11129,173.577,-0.51,0.80,0.00,0.64,0.49,11.27,100.0,-70
11130,173.660,-0.48,0.81,-0.05,0.64,0.49,11.53,100.0,-68
11131,173.744,-0.51,0.89,-0.15,0.69,0.54,11.53,100.0,-68
11132,173.828,-0.57,0.87,-0.05,0.64,0.59,11.53,100.0,-68
11133,173.911,-0.57,0.80,-0.05,0.59,0.54,11.40,100.0,-68
11134,173.995,-0.57,0.84,-0.05,0.64,0.54,11.40,100.0,-68
11135,174.079,-0.62,0.84,-0.05,0.64,0.54,11.40,100.0,-68
11136,174.163,-0.60,0.81,-0.10,0.64,0.49,11.66,100.0,-70
11137,174.263,-0.59,0.87,-0.05,0.69,0.54,11.66,100.0,-70
11138,174.364,-0.58,0.83,0.00,0.64,0.54,11.66,100.0,-70
11139,174.464,-0.58,0.83,-0.05,0.59,0.59,11.40,100.0,-70
11140,174.564,-0.62,0.80,-0.05,0.59,0.54,11.40,100.0,-70
11141,174.665,-0.56,0.84,-0.05,0.64,0.54,11.40,100.0,-70
11142,174.765,-0.60,0.87,-0.05,0.64,0.59,11.52,100.0,-73
11143,174.849,-0.65,0.87,-0.05,0.69,0.54,11.52,100.0,-73
11144,174.932,-0.61,0.84,-0.10,0.64,0.54,11.52,100.0,-73
11145,175.016,-0.61,0.81,-0.05,0.64,0.49,11.27,100.0,-73
11146,175.100,-0.63,0.91,-0.05,0.69,0.59,11.27,100.0,-73
11147,175.183,-0.63,0.88,-0.10,0.69,0.54,11.27,100.0,-73
11148,175.267,-0.59,0.83,-0.05,0.59,0.59,11.53,100.0,-75
11149,175.351,-0.61,0.87,-0.05,0.64,0.59,11.53,100.0,-75
11150,175.434,-0.49,0.87,-0.05,0.64,0.59,11.53,100.0,-75
11151,175.518,-0.49,0.85,-0.10,0.69,0.49,11.27,100.0,-75
11152,175.602,-0.51,0.80,0.00,0.64,0.49,11.27,100.0,-75
11153,175.685,-0.49,0.81,-0.05,0.64,0.49,11.27,100.0,-75
11154,175.769,-0.47,0.80,-0.10,0.59,0.54,11.53,100.0,-74
11155,175.853,-0.52,0.83,-0.05,0.59,0.59,11.53,100.0,-74
11156,175.936,-0.52,0.87,-0.05,0.69,0.54,11.53,100.0,-74
11157,176.019,-0.52,0.81,-0.10,0.64,0.49,11.40,100.0,-74
11158,176.103,-0.48,0.84,-0.05,0.64,0.54,11.40,100.0,-74
11159,176.187,-0.54,0.81,-0.05,0.64,0.49,11.40,100.0,-74
11160,176.270,-0.52,0.84,-0.05,0.64,0.54,11.66,100.0,-72
11161,176.370,-0.49,0.91,-0.10,0.64,0.64,11.66,100.0,-72
11162,176.471,-0.55,0.83,-0.05,0.59,0.59,11.66,100.0,-72
11163,176.571,-0.55,0.81,-0.05,0.64,0.49,11.40,100.0,-72
11164,176.671,-0.66,0.87,-0.10,0.64,0.59,11.40,100.0,-72
11165,176.772,-0.61,0.81,-0.10,0.64,0.49,11.40,100.0,-72
11166,176.872,-0.54,0.81,-0.05,0.64,0.49,11.53,100.0,-71
11167,176.956,-0.54,0.87,-0.05,0.69,0.54,11.53,100.0,-71
11168,177.040,-0.50,0.84,-0.05,0.69,0.49,11.53,100.0,-71
11169,177.124,-0.50,0.84,-0.05,0.64,0.54,11.27,100.0,-71
11170,177.207,-0.51,0.83,0.00,0.64,0.54,11.27,100.0,-71
11171,177.291,-0.46,0.84,-0.05,0.64,0.54,11.27,100.0,-71
11172,177.375,-0.38,0.87,-0.05,0.64,0.59,11.53,100.0,-72
11173,177.459,-0.37,0.84,-0.10,0.64,0.54,11.53,100.0,-72
11174,177.542,-0.39,0.88,-0.10,0.69,0.54,11.53,100.0,-72
11175,177.626,-0.39,0.81,-0.05,0.64,0.49,11.27,100.0,-72
11176,177.710,-0.49,0.84,-0.05,0.64,0.54,11.27,100.0,-72
11177,177.793,-0.54,0.84,-0.05,0.64,0.54,11.27,100.0,-72
11178,177.877,-0.45,0.87,-0.05,0.69,0.54,11.53,100.0,-73
11179,177.961,-0.53,0.81,-0.05,0.64,0.49,11.53,100.0,-73
11180,178.044,-0.58,0.87,-0.05,0.64,0.59,11.53,100.0,-73
11181,178.128,-0.58,0.84,-0.05,0.64,0.54,11.27,100.0,-73
11182,178.212,-0.66,0.84,-0.05,0.64,0.54,11.27,100.0,-73
11183,178.295,-0.59,0.83,0.00,0.64,0.54,11.27,100.0,-73
11184,178.379,-0.48,0.84,-0.05,0.64,0.54,11.53,100.0,-73
11185,178.463,-0.48,0.84,-0.05,0.64,0.54,11.53,100.0,-73
11186,178.546,-0.50,0.87,-0.05,0.69,0.54,11.53,100.0,-73
11187,178.630,-0.50,0.87,-0.05,0.64,0.59,11.40,100.0,-73
11188,178.714,-0.56,0.86,-0.15,0.69,0.49,11.40,100.0,-73
11189,178.797,-0.55,0.84,-0.05,0.64,0.54,11.40,100.0,-73
11190,178.881,-0.58,0.80,-0.05,0.59,0.54,11.66,100.0,-74
11191,178.981,-0.56,0.83,-0.05,0.59,0.59,11.66,100.0,-74
11192,179.082,-0.56,0.87,-0.05,0.69,0.54,11.66,100.0,-74
11193,179.182,-0.56,0.87,-0.10,0.64,0.59,11.40,100.0,-74
11194,179.282,-0.58,0.83,0.00,0.64,0.54,11.40,100.0,-74
11195,179.383,-0.52,0.84,-0.05,0.64,0.54,11.40,100.0,-74
11196,179.483,-0.51,0.80,-0.10,0.59,0.54,11.53,100.0,-75
11197,179.567,-0.45,0.84,-0.10,0.64,0.54,11.53,100.0,-75
11198,179.650,-0.49,0.87,-0.05,0.64,0.59,11.53,100.0,-75
11199,179.734,-0.49,0.80,0.00,0.59,0.54,11.27,100.0,-75
11200,179.818,-0.51,0.80,-0.05,0.59,0.54,11.27,100.0,-75
11201,179.901,-0.50,0.80,0.00,0.59,0.54,11.27,100.0,-75
11202,179.985,-0.45,0.84,-0.10,0.64,0.54,11.53,100.0,-76
11203,180.069,-0.53,0.78,-0.05,0.64,0.44,11.53,100.0,-76
11204,180.152,-0.54,0.81,-0.05,0.64,0.49,11.53,100.0,-76
11205,180.236,-0.54,0.88,-0.15,0.64,0.59,11.27,100.0,-76
11206,180.320,-0.59,0.81,-0.10,0.64,0.49,11.27,100.0,-76
11207,180.403,-0.59,0.83,0.00,0.64,0.54,11.27,100.0,-76
11208,180.487,-0.54,0.81,-0.10,0.64,0.49,11.53,100.0,-70
11209,180.571,-0.58,0.91,-0.10,0.64,0.64,11.53,100.0,-70
11210,180.654,-0.57,0.80,-0.05,0.59,0.54,11.53,100.0,-70
11211,180.738,-0.57,0.87,-0.05,0.59,0.64,11.40,100.0,-70
11212,180.822,-0.59,0.87,0.00,0.64,0.59,11.40,100.0,-70
11213,180.905,-0.55,0.80,0.00,0.59,0.54,11.40,100.0,-70
11214,180.989,-0.51,0.81,-0.05,0.64,0.49,11.66,100.0,-70
11215,181.073,-0.51,0.81,-0.05,0.64,0.49,11.66,100.0,-70
11216,181.156,-0.54,0.83,0.00,0.64,0.54,11.66,100.0,-70
11217,181.240,-0.54,0.84,-0.10,0.64,0.54,11.40,100.0,-70
11218,181.324,-0.63,0.90,-0.05,0.64,0.64,11.40,100.0,-70
11219,181.407,-0.64,0.87,-0.05,0.69,0.54,11.40,100.0,-70
11220,181.491,-0.61,0.84,-0.10,0.64,0.54,11.66,100.0,-71
11221,181.591,-0.60,0.87,-0.05,0.69,0.54,11.66,100.0,-71
11222,181.692,-0.66,0.87,-0.10,0.64,0.59,11.66,100.0,-71
11223,181.792,-0.66,0.81,-0.10,0.64,0.49,11.40,100.0,-71
11224,181.892,-0.63,0.87,-0.05,0.64,0.59,11.40,100.0,-71
11225,181.993,-0.62,0.84,-0.10,0.64,0.54,11.40,100.0,-71
11226,182.093,-0.55,0.77,-0.05,0.59,0.49,11.53,100.0,-70
11227,182.177,-0.52,0.91,-0.05,0.69,0.59,11.53,100.0,-70
11228,182.261,-0.58,0.84,-0.05,0.64,0.54,11.53,100.0,-70
11229,182.345,-0.58,0.81,-0.05,0.64,0.49,11.27,100.0,-70
11230,182.429,-0.53,0.80,-0.05,0.59,0.54,11.27,100.0,-70
11231,182.513,-0.51,0.84,-0.05,0.69,0.49,11.27,100.0,-70
11232,182.597,-0.44,0.81,-0.10,0.64,0.49,11.52,100.0,-71
11233,182.680,-0.51,0.81,-0.05,0.64,0.49,11.52,100.0,-71
11234,182.764,-0.52,0.80,0.00,0.59,0.54,11.52,100.0,-71
11235,182.847,-0.52,0.89,-0.05,0.74,0.49,11.27,100.0,-71
11236,182.930,-0.58,0.81,-0.10,0.64,0.49,11.27,100.0,-71
11237,183.014,-0.58,0.83,0.00,0.64,0.54,11.27,100.0,-71
11238,183.097,-0.54,0.84,-0.05,0.64,0.54,11.53,100.0,-71
11239,183.181,-0.59,0.84,-0.10,0.59,0.59,11.53,100.0,-71
11240,183.265,-0.55,0.80,-0.05,0.59,0.54,11.53,100.0,-71
11241,183.349,-0.55,0.84,0.00,0.69,0.49,11.40,100.0,-71
11242,183.433,-0.61,0.84,-0.10,0.64,0.54,11.40,100.0,-71
11243,183.517,-0.50,0.87,-0.05,0.69,0.54,11.40,100.0,-71
11244,183.601,-0.44,0.82,-0.15,0.64,0.49,11.66,100.0,-72
11245,183.701,-0.51,0.84,-0.05,0.69,0.49,11.66,100.0,-72
11246,183.801,-0.52,0.81,-0.10,0.64,0.49,11.66,100.0,-72
11247,183.901,-0.52,0.84,-0.05,0.69,0.49,11.40,100.0,-72
11248,184.002,-0.61,0.91,-0.05,0.69,0.59,11.40,100.0,-72
11249,184.102,-0.60,0.88,-0.10,0.69,0.54,11.40,100.0,-72
11250,184.202,-0.59,0.84,-0.05,0.64,0.54,11.53,100.0,-72
11251,184.286,-0.56,0.87,0.00,0.69,0.54,11.53,100.0,-72
11252,184.369,-0.46,0.84,-0.05,0.64,0.54,11.53,100.0,-72
11253,184.453,-0.46,0.81,-0.05,0.64,0.49,11.27,100.0,-72
11254,184.537,-0.51,0.81,-0.05,0.64,0.49,11.27,100.0,-72
11255,184.620,-0.52,0.82,-0.05,0.69,0.44,11.27,100.0,-72
11256,184.704,-0.47,0.84,-0.10,0.64,0.54,11.53,100.0,-72
11257,184.788,-0.49,0.84,-0.05,0.69,0.49,11.53,100.0,-72
11258,184.871,-0.51,0.91,-0.10,0.69,0.59,11.53,100.0,-72
11259,184.955,-0.51,0.87,0.00,0.69,0.54,11.27,100.0,-72
11260,185.039,-0.48,0.87,-0.05,0.69,0.54,11.27,100.0,-72
11261,185.122,-0.50,0.85,-0.10,0.69,0.49,11.27,100.0,-72
11262,185.206,-0.43,0.84,-0.10,0.64,0.54,11.53,100.0,-70
11263,185.290,-0.52,0.84,-0.05,0.64,0.54,11.53,100.0,-70
11264,185.373,-0.50,0.81,-0.05,0.64,0.49,11.53,100.0,-70
11265,185.457,-0.50,0.87,-0.05,0.69,0.54,11.40,100.0,-70
11266,185.541,-0.51,0.84,-0.05,0.64,0.54,11.40,100.0,-70
11267,185.624,-0.49,0.88,-0.10,0.69,0.54,11.40,100.0,-70
11268,185.708,-0.41,0.84,-0.10,0.64,0.54,11.66,100.0,-70
11269,185.808,-0.43,0.82,-0.10,0.69,0.44,11.66,100.0,-70
11270,185.909,-0.48,0.91,-0.05,0.74,0.54,11.66,100.0,-70
11271,186.009,-0.48,0.88,-0.10,0.69,0.54,11.40,100.0,-70
11272,186.109,-0.48,0.87,0.00,0.69,0.54,11.40,100.0,-70
11273,186.210,-0.47,0.84,-0.10,0.64,0.54,11.40,100.0,-70
11274,186.310,-0.41,0.84,-0.05,0.64,0.54,11.53,100.0,-71
11275,186.394,-0.45,0.81,-0.10,0.64,0.49,11.53,100.0,-71
11276,186.477,-0.50,0.81,-0.05,0.64,0.49,11.53,100.0,-71
11277,186.561,-0.50,0.87,-0.05,0.69,0.54,11.27,100.0,-71
11278,186.645,-0.57,0.83,0.00,0.64,0.54,11.27,100.0,-71
11279,186.728,-0.57,0.87,-0.05,0.64,0.59,11.27,100.0,-71
11280,186.812,-0.55,0.78,-0.10,0.64,0.44,11.53,100.0,-70
11281,186.896,-0.58,0.81,-0.05,0.64,0.49,11.53,100.0,-70
11282,186.979,-0.54,0.83,0.00,0.64,0.54,11.53,100.0,-70
11283,187.063,-0.54,0.87,-0.05,0.69,0.54,11.27,100.0,-70
11284,187.147,-0.60,0.84,-0.05,0.69,0.49,11.27,100.0,-70
11285,187.230,-0.53,0.87,-0.05,0.64,0.59,11.27,100.0,-70
11286,187.314,-0.52,0.84,-0.10,0.64,0.54,11.53,100.0,-70
11287,187.398,-0.49,0.84,-0.10,0.64,0.54,11.53,100.0,-70
11288,187.482,-0.53,0.84,-0.05,0.64,0.54,11.53,100.0,-70
11289,187.565,-0.53,0.85,-0.10,0.69,0.49,11.27,100.0,-70
11290,187.649,-0.61,0.84,-0.05,0.64,0.54,11.27,100.0,-70
11291,187.733,-0.58,0.88,-0.10,0.69,0.54,11.27,100.0,-70
11292,187.817,-0.50,0.91,-0.05,0.74,0.54,11.53,100.0,-71
11293,187.901,-0.53,0.85,-0.10,0.69,0.49,11.53,100.0,-71
11294,187.984,-0.60,0.74,-0.05,0.59,0.44,11.53,100.0,-71
11295,188.068,-0.60,0.91,-0.05,0.69,0.59,11.40,100.0,-71
