sid,time,altitude,acceleration,acceleration-X,acceleration-Y,acceleration-Z,SPS,Reliability,RSSI
3324,0.134,0.00,0.88,0.83,0.15,-0.24,0.00,100.0,-60
3325,0.218,0.01,0.94,0.88,0.20,-0.24,0.00,100.0,-60
3326,0.302,0.02,0.90,0.83,0.20,-0.29,0.00,100.0,-60
3327,0.386,0.02,0.93,0.88,0.15,-0.24,0.00,100.0,-60
3328,0.469,-0.05,1.00,0.93,0.20,-0.29,0.00,100.0,-60
3329,0.553,-0.07,0.94,0.88,0.20,-0.24,0.00,100.0,-60
3330,0.637,-0.01,0.89,0.83,0.20,-0.24,11.93,100.0,-59
3331,0.721,-0.03,0.89,0.83,0.20,-0.24,11.29,100.0,-59
3332,0.805,-0.08,0.92,0.88,0.15,-0.20,10.72,100.0,-59
3333,0.889,-0.08,0.99,0.93,0.15,-0.29,10.20,100.0,-59
3334,0.974,-0.15,0.99,0.93,0.15,-0.29,9.72,100.0,-59
3335,1.058,-0.11,0.97,0.93,0.15,-0.24,9.29,100.0,-59
3336,1.142,-0.14,0.90,0.83,0.15,-0.29,11.90,100.0,-58
3337,1.226,-0.13,0.96,0.88,0.15,-0.34,11.58,100.0,-58
3338,1.310,-0.09,0.94,0.88,0.15,-0.29,11.27,100.0,-58
3339,1.393,-0.09,0.94,0.88,0.20,-0.24,10.97,100.0,-58
3340,1.477,-0.07,1.02,0.93,0.24,-0.34,10.69,100.0,-58
3341,1.561,-0.05,0.92,0.83,0.20,-0.34,10.43,100.0,-58
3342,1.645,0.03,0.93,0.88,0.15,-0.24,11.92,100.0,-59
3343,1.745,0.03,0.89,0.83,0.20,-0.24,11.70,100.0,-59
3344,1.845,0.05,0.90,0.83,0.20,-0.29,11.48,100.0,-59
3345,1.946,0.05,0.95,0.88,0.24,-0.24,11.28,100.0,-59
3346,2.046,-0.04,0.92,0.88,0.15,-0.20,11.08,100.0,-59
3347,2.146,-0.10,0.93,0.88,0.15,-0.24,10.89,100.0,-59
3348,2.246,-0.08,0.90,0.83,0.15,-0.29,11.36,100.0,-60
3349,2.330,-0.10,0.91,0.83,0.15,-0.34,11.21,100.0,-60
3350,2.414,-0.07,0.93,0.88,0.15,-0.24,11.07,100.0,-60
3351,2.498,-0.07,0.99,0.93,0.15,-0.29,10.92,100.0,-60
3352,2.581,-0.06,0.94,0.88,0.20,-0.24,10.78,100.0,-60
3353,2.665,-0.03,0.94,0.88,0.20,-0.24,10.64,100.0,-60
3354,2.749,0.07,0.88,0.83,0.20,-0.20,11.47,100.0,-60
3355,2.833,0.05,1.01,0.93,0.20,-0.34,11.35,100.0,-60
3356,2.916,0.03,0.95,0.88,0.20,-0.29,11.23,100.0,-60
3357,3.000,0.03,0.95,0.88,0.20,-0.29,11.11,100.0,-60
3358,3.084,-0.08,0.88,0.83,0.15,-0.24,10.99,100.0,-60
3359,3.167,-0.03,0.94,0.88,0.20,-0.24,10.88,100.0,-60
3360,3.251,0.03,0.94,0.88,0.15,-0.29,11.55,100.0,-59
3361,3.435,0.02,0.89,0.83,0.20,-0.24,11.45,100.0,-59
3362,3.618,0.00,0.98,0.93,0.20,-0.24,11.34,100.0,-59
3363,3.802,0.00,0.94,0.88,0.20,-0.24,11.24,100.0,-59
3364,3.986,0.04,0.93,0.88,0.15,-0.24,11.14,100.0,-59
3365,4.169,0.06,0.95,0.88,0.20,-0.29,11.04,100.0,-59
3372,4.353,0.18,0.90,0.83,0.20,-0.29,9.96,94.5,-60
3373,4.437,0.08,0.94,0.88,0.20,-0.24,9.89,94.5,-60
3374,4.521,0.01,0.95,0.88,0.20,-0.29,9.82,94.5,-60
3375,4.604,0.01,0.95,0.88,0.20,-0.29,9.76,94.5,-60
3376,4.688,0.00,0.89,0.83,0.20,-0.24,9.69,94.5,-60
3377,4.772,0.02,0.93,0.88,0.15,-0.24,9.63,94.5,-60
3378,4.856,0.07,0.91,0.83,0.15,-0.34,10.17,94.8,-60
3379,4.939,0.00,1.02,0.98,0.15,-0.24,10.11,94.8,-60
3380,5.023,-0.04,0.95,0.88,0.20,-0.29,10.05,94.8,-60
3381,5.106,-0.04,0.93,0.88,0.15,-0.24,9.99,94.8,-60
3382,5.189,-0.07,0.97,0.93,0.15,-0.24,9.93,94.8,-60
3383,5.273,-0.04,1.01,0.93,0.24,-0.29,9.87,94.8,-60
3384,5.356,0.07,0.88,0.83,0.15,-0.24,10.34,95.1,-60
3385,5.440,-0.07,1.00,0.93,0.20,-0.29,10.29,95.1,-60
3386,5.524,-0.07,0.94,0.88,0.20,-0.24,10.23,95.1,-60
3387,5.608,-0.07,0.94,0.88,0.15,-0.29,10.17,95.1,-60
3388,5.692,-0.05,0.98,0.93,0.20,-0.24,10.12,95.1,-60
3389,5.776,-0.02,0.96,0.88,0.15,-0.34,10.07,95.1,-60
3390,5.860,0.01,0.90,0.83,0.20,-0.29,10.48,95.4,-64
3391,5.944,0.01,0.97,0.93,0.20,-0.20,10.43,95.4,-64
3392,6.028,-0.05,0.93,0.88,0.15,-0.24,10.37,95.4,-64
3393,6.112,-0.05,0.96,0.93,0.15,-0.20,10.32,95.4,-64
3394,6.195,-0.10,0.92,0.88,0.20,-0.20,10.27,95.4,-64
3395,6.279,-0.06,0.93,0.88,0.15,-0.24,10.22,95.4,-64
3396,6.363,0.02,0.99,0.93,0.15,-0.29,10.60,95.7,-64
3397,6.463,-0.10,0.98,0.93,0.10,-0.29,10.55,95.7,-64
3398,6.564,-0.06,0.95,0.88,0.20,-0.29,10.50,95.7,-64
3399,6.664,-0.06,0.92,0.88,0.20,-0.20,10.45,95.7,-64
3400,6.764,-0.01,0.94,0.88,0.20,-0.24,10.41,95.7,-64
3401,6.865,-0.02,0.92,0.83,0.24,-0.29,10.36,95.7,-64
3402,6.965,0.01,0.96,0.88,0.15,-0.34,10.54,95.9,-57
3403,7.049,-0.04,0.93,0.88,0.15,-0.24,10.50,95.9,-57
3404,7.133,-0.08,0.94,0.88,0.20,-0.24,10.45,95.9,-57
3405,7.216,-0.08,0.96,0.88,0.24,-0.29,10.41,95.9,-57
3406,7.300,-0.02,0.92,0.88,0.15,-0.20,10.37,95.9,-57
3407,7.384,0.02,1.00,0.93,0.20,-0.29,10.32,95.9,-57
3408,7.468,0.07,0.99,0.93,0.15,-0.29,10.64,96.2,-55
3409,7.552,0.11,0.92,0.88,0.10,-0.24,10.60,96.2,-55
3410,7.635,0.11,0.91,0.88,0.15,-0.15,10.55,96.2,-55
3411,7.719,0.11,0.95,0.88,0.20,-0.29,10.51,96.2,-55
3412,7.803,0.02,0.95,0.88,0.20,-0.29,10.47,96.2,-55
3413,7.886,0.04,0.88,0.83,0.15,-0.24,10.43,96.2,-55
3414,7.970,0.16,0.77,0.74,0.20,-0.15,10.72,96.4,-58
3415,8.054,0.10,0.95,0.88,0.20,-0.29,10.68,96.4,-58
3416,8.137,0.03,0.89,0.83,0.20,-0.24,10.64,96.4,-58
3417,8.221,0.03,0.90,0.83,0.24,-0.24,10.60,96.4,-58
3418,8.305,-0.03,0.98,0.93,0.20,-0.24,10.57,96.4,-58
3419,8.388,0.00,0.92,0.88,0.20,-0.20,10.53,96.4,-58
3420,8.472,0.05,0.89,0.83,0.20,-0.24,10.79,96.6,-57
3421,8.572,0.00,1.01,0.93,0.20,-0.34,10.76,96.6,-57
3422,8.673,0.02,0.89,0.83,0.20,-0.24,10.72,96.6,-57
3423,8.773,0.02,0.95,0.88,0.20,-0.29,10.68,96.6,-57
3424,8.873,0.02,0.93,0.88,0.15,-0.24,10.65,96.6,-57
3425,8.974,-0.01,0.88,0.83,0.20,-0.20,10.61,96.6,-57
3426,9.074,0.08,0.84,0.78,0.20,-0.24,10.74,96.8,-57
3427,9.158,0.01,0.94,0.88,0.15,-0.29,10.70,96.8,-57
3428,9.242,0.00,0.96,0.88,0.24,-0.29,10.67,96.8,-57
3429,9.325,0.00,0.94,0.88,0.20,-0.24,10.64,96.8,-57
3430,9.409,0.02,0.92,0.88,0.15,-0.20,10.64,96.8,-57
3431,9.493,-0.02,0.93,0.88,0.15,-0.24,10.64,96.8,-57
3432,9.577,0.01,0.90,0.83,0.15,-0.29,10.90,97.0,-57
3433,9.661,0.06,0.95,0.88,0.20,-0.29,10.90,97.0,-57
3434,9.744,-0.01,0.90,0.83,0.20,-0.29,10.90,97.0,-57
3435,9.828,-0.01,0.92,0.88,0.20,-0.20,10.64,97.0,-57
3436,9.912,-0.07,0.89,0.83,0.20,-0.24,10.64,97.0,-57
3437,9.995,-0.03,0.88,0.83,0.15,-0.24,10.64,97.0,-57
3438,10.079,0.00,0.84,0.78,0.20,-0.24,10.90,97.2,-58
3439,10.163,-0.08,0.94,0.88,0.20,-0.24,10.90,97.2,-58
3440,10.247,-0.12,0.97,0.93,0.15,-0.24,10.90,97.2,-58
3441,10.331,-0.12,0.89,0.83,0.20,-0.24,10.64,97.2,-58
3442,10.414,-0.11,0.93,0.88,0.15,-0.24,10.64,97.2,-58
3443,10.498,-0.01,0.87,0.83,0.15,-0.20,10.64,97.2,-58
3444,10.582,0.06,0.90,0.83,0.20,-0.29,10.90,97.3,-56
3445,10.765,0.02,0.93,0.88,0.15,-0.24,10.90,97.3,-56
3446,10.948,0.03,0.94,0.88,0.20,-0.24,10.90,97.3,-56
3447,11.131,0.03,0.95,0.88,0.20,-0.29,10.64,97.3,-56
3448,11.315,0.02,1.00,0.93,0.20,-0.29,10.64,97.3,-56
3449,11.498,0.06,0.94,0.88,0.15,-0.29,10.64,97.3,-56
3456,11.681,0.01,0.94,0.88,0.20,-0.24,10.25,92.1,-56
3457,11.765,-0.06,0.93,0.88,0.15,-0.24,10.25,92.1,-56
3458,11.849,-0.04,1.00,0.93,0.20,-0.29,10.25,92.1,-56
3459,11.933,-0.04,0.95,0.93,0.15,-0.15,10.08,92.1,-56
3460,12.018,-0.07,0.93,0.88,0.15,-0.24,10.08,92.1,-56
3461,12.102,-0.04,0.97,0.93,0.20,-0.20,10.08,92.1,-56
3462,12.186,0.01,0.94,0.88,0.20,-0.24,10.35,92.6,-55
3463,12.270,0.00,0.90,0.83,0.24,-0.24,10.35,92.6,-55
3464,12.353,0.06,0.96,0.88,0.15,-0.34,10.35,92.6,-55
3465,12.436,0.06,0.91,0.88,0.10,-0.20,10.08,92.6,-55
3466,12.520,0.10,0.92,0.88,0.10,-0.24,10.08,92.6,-55
3467,12.604,0.07,0.89,0.83,0.20,-0.24,10.08,92.6,-55
3468,12.687,0.15,0.88,0.83,0.15,-0.24,10.35,93.0,-57
3469,12.771,0.07,1.00,0.93,0.20,-0.29,10.35,93.0,-57
3470,12.855,0.00,0.93,0.88,0.15,-0.24,10.35,93.0,-57
3471,12.938,0.00,0.96,0.88,0.24,-0.29,10.08,93.0,-57
3472,13.022,0.01,0.93,0.83,0.24,-0.34,10.08,93.0,-57
3473,13.106,0.01,0.93,0.88,0.15,-0.24,10.08,93.0,-57
3474,13.190,0.06,0.94,0.88,0.15,-0.29,10.35,93.4,-57
3475,13.290,-0.01,0.93,0.88,0.15,-0.24,10.35,93.4,-57
3476,13.391,-0.01,0.89,0.83,0.20,-0.24,10.35,93.4,-57
3477,13.491,-0.01,0.90,0.83,0.15,-0.29,10.76,93.4,-57
3478,13.591,-0.04,1.00,0.93,0.20,-0.29,10.76,93.4,-57
3479,13.692,0.02,0.97,0.93,0.15,-0.24,10.76,93.4,-57
3480,13.792,0.08,0.93,0.88,0.15,-0.24,10.91,93.8,-56
3481,13.876,0.10,0.96,0.88,0.24,-0.29,10.91,93.8,-56
3482,13.960,0.06,0.93,0.88,0.15,-0.24,10.91,93.8,-56
3483,14.043,0.06,0.95,0.88,0.24,-0.24,10.64,93.8,-56
3484,14.127,-0.06,0.91,0.88,0.10,-0.20,10.64,93.8,-56
3485,14.211,-0.05,0.91,0.88,0.10,-0.20,10.64,93.8,-56
3486,14.295,-0.01,0.92,0.88,0.10,-0.24,10.91,94.2,-56
3487,14.379,0.00,1.01,0.93,0.20,-0.34,10.91,94.2,-56
3488,14.462,0.03,0.97,0.88,0.20,-0.34,10.91,94.2,-56
3489,14.546,0.03,0.95,0.88,0.20,-0.29,10.64,94.2,-56
3490,14.630,0.03,0.94,0.88,0.20,-0.24,10.64,94.2,-56
3491,14.713,0.03,0.94,0.88,0.20,-0.24,10.64,94.2,-56
3492,14.797,0.09,0.93,0.88,0.15,-0.24,10.90,94.5,-54
3493,14.881,0.07,0.94,0.88,0.20,-0.24,10.90,94.5,-54
3494,14.964,0.02,0.92,0.88,0.20,-0.20,10.90,94.5,-54
3495,15.048,0.02,1.00,0.93,0.20,-0.29,10.64,94.5,-54
3496,15.132,-0.07,0.97,0.93,0.15,-0.24,10.64,94.5,-54
3497,15.215,-0.09,0.97,0.93,0.15,-0.24,10.64,94.5,-54
3498,15.299,0.01,0.94,0.88,0.20,-0.24,10.91,94.8,-55
3499,15.399,-0.04,0.94,0.88,0.20,-0.24,10.91,94.8,-55
3500,15.500,-0.01,0.95,0.88,0.20,-0.29,10.91,94.8,-55
3501,15.600,-0.01,0.96,0.88,0.24,-0.29,10.64,94.8,-55
3502,15.700,0.05,0.89,0.83,0.20,-0.24,10.64,94.8,-55
3503,15.801,0.06,0.92,0.88,0.15,-0.20,10.64,94.8,-55
3504,15.901,0.09,0.84,0.78,0.20,-0.24,10.79,95.1,-55
3505,15.985,0.07,0.92,0.88,0.15,-0.20,10.79,95.1,-55
3506,16.069,0.02,0.84,0.78,0.20,-0.24,10.79,95.1,-55
3507,16.152,0.02,0.98,0.93,0.20,-0.24,10.64,95.1,-55
3508,16.236,0.01,0.98,0.93,0.20,-0.24,10.64,95.1,-55
3509,16.320,0.02,0.94,0.88,0.15,-0.29,10.64,95.1,-55
3510,16.404,0.05,0.97,0.93,0.15,-0.24,10.91,95.4,-53
3511,16.488,-0.02,0.88,0.83,0.20,-0.20,10.91,95.4,-53
3512,16.571,-0.13,0.96,0.88,0.15,-0.34,10.91,95.4,-53
3513,16.654,-0.13,0.97,0.93,0.15,-0.24,10.64,95.4,-53
3514,16.738,-0.11,0.93,0.88,0.15,-0.24,10.64,95.4,-53
3515,16.822,-0.09,0.93,0.88,0.15,-0.24,10.64,95.4,-53
3516,16.905,-0.02,5.11,5.10,0.24,-0.24,10.91,95.7,-63
3517,16.989,0.40,4.82,4.80,0.20,-0.34,10.91,95.7,-63
3518,17.072,0.77,4.24,4.21,0.34,-0.34,10.91,95.7,-63
3519,17.156,0.77,4.14,4.12,0.34,-0.24,10.64,95.7,-63
3520,17.240,1.19,3.84,3.82,0.24,-0.29,10.64,95.7,-63
3521,17.323,1.72,3.70,3.68,0.29,-0.34,10.64,95.7,-63
3522,17.407,2.21,1.72,1.67,0.24,-0.34,10.91,95.9,-83
3523,17.508,5.06,0.90,0.78,0.20,-0.39,10.91,95.9,-83
3524,17.608,7.40,0.31,0.00,0.20,-0.24,10.91,95.9,-83
3525,17.709,7.40,0.37,-0.10,0.20,-0.29,10.64,95.9,-83
3526,17.809,9.26,0.32,-0.15,0.15,-0.24,10.64,95.9,-83
3527,17.910,10.86,0.37,-0.20,0.20,-0.24,10.64,95.9,-83
3528,18.010,12.28,0.32,-0.15,0.15,-0.24,10.79,96.2,-83
3529,18.094,15.51,0.31,-0.15,0.20,-0.20,10.79,96.2,-83
3530,18.177,18.09,0.40,-0.24,0.20,-0.24,10.79,96.2,-83
3531,18.261,18.09,0.35,-0.15,0.20,-0.24,10.64,96.2,-83
3532,18.345,20.13,0.42,-0.15,0.20,-0.34,10.64,96.2,-83
3533,18.428,21.86,0.40,-0.20,0.20,-0.29,10.64,96.2,-83
3534,18.512,23.24,0.33,-0.05,0.15,-0.29,10.91,96.4,-80
3535,18.596,25.93,0.29,-0.10,0.20,-0.20,10.91,96.4,-80
3536,18.679,28.09,0.36,-0.05,0.20,-0.29,10.91,96.4,-80
3537,18.763,28.09,0.30,-0.10,0.15,-0.24,10.64,96.4,-80
3538,18.847,29.73,0.32,-0.05,0.20,-0.24,10.64,96.4,-80
3539,18.930,31.17,0.39,-0.10,0.24,-0.29,10.64,96.4,-80
3540,19.014,32.38,0.31,0.00,0.20,-0.24,10.91,96.6,-77
3541,19.098,34.29,0.29,-0.05,0.15,-0.24,10.91,96.6,-77
3542,19.182,34.29,0.39,-0.05,0.24,-0.29,10.91,96.6,-77
3543,19.265,35.85,0.36,-0.05,0.20,-0.29,10.64,96.6,-77
3544,19.349,37.15,0.33,0.00,0.15,-0.29,10.64,96.6,-77
3545,19.433,38.17,0.40,-0.05,0.20,-0.34,10.64,96.6,-77
3546,19.517,39.01,0.38,-0.05,0.15,-0.34,10.91,96.8,-75
3547,19.601,40.32,0.37,-0.10,0.20,-0.29,10.91,96.8,-75
3548,19.684,41.25,0.42,-0.05,0.24,-0.34,10.91,96.8,-75
3549,19.768,41.25,0.33,-0.05,0.15,-0.29,10.64,96.8,-75
3550,19.852,42.01,0.36,-0.05,0.20,-0.29,10.64,96.8,-75
3551,19.935,42.69,0.33,-0.05,0.15,-0.29,10.64,96.8,-75
3552,20.019,43.20,0.42,-0.05,0.24,-0.34,10.91,97.0,-77
3553,20.119,43.65,0.42,-0.05,0.29,-0.29,10.91,97.0,-77
3554,20.220,44.09,0.36,-0.05,0.20,-0.29,10.91,97.0,-77
3555,20.320,44.09,0.40,-0.05,0.20,-0.34,11.40,97.0,-77
3556,20.420,44.45,0.46,-0.10,0.29,-0.34,11.40,97.0,-77
3557,20.521,44.71,0.42,-0.05,0.24,-0.34,11.40,97.0,-77
3558,20.621,44.98,0.41,-0.15,0.24,-0.29,11.52,97.2,-81
3559,20.705,44.54,0.43,-0.20,0.24,-0.29,11.52,97.2,-81
3560,20.788,44.24,0.35,-0.15,0.20,-0.24,11.52,97.2,-81
3561,20.872,44.24,0.31,-0.15,0.20,-0.20,11.27,97.2,-81
3562,20.956,43.88,0.37,-0.10,0.20,-0.29,11.27,97.2,-81
3563,21.039,43.60,0.35,-0.15,0.20,-0.24,11.27,97.2,-81
3564,21.123,43.39,0.30,-0.10,0.15,-0.24,11.52,97.3,-81
3565,21.207,42.47,0.37,-0.10,0.20,-0.29,11.52,97.3,-81
3566,21.291,41.61,0.26,-0.10,0.15,-0.20,11.52,97.3,-81
3567,21.375,41.61,0.33,-0.05,0.15,-0.29,11.27,97.3,-81
3568,21.458,40.91,0.41,-0.15,0.24,-0.29,11.27,97.3,-81
3569,21.542,40.34,0.33,-0.10,0.20,-0.24,11.27,97.3,-81
3570,21.626,39.87,1.51,-1.47,-0.15,-0.29,11.52,97.5,-77
3571,21.710,38.66,1.28,-1.18,0.49,-0.15,11.52,97.5,-77
3572,21.793,39.98,4.26,-4.16,0.83,-0.29,11.52,97.5,-77
3573,21.877,39.98,3.69,-3.58,0.88,-0.10,11.27,97.5,-77
3574,21.961,39.18,9.03,-9.02,0.29,-0.39,11.27,97.5,-77
3575,22.044,38.35,14.54,-14.50,0.24,-0.93,11.27,97.5,-77
3576,22.128,37.17,0.72,0.69,-0.15,-0.15,11.52,97.6,-65
3577,22.228,35.16,0.94,0.64,0.05,-0.69,11.52,97.6,-65
3578,22.329,33.77,0.69,0.05,0.05,-0.69,11.52,97.6,-65
3579,22.429,33.77,0.77,-0.69,-0.05,-0.34,11.40,97.6,-65
3580,22.529,32.61,1.87,-1.27,-1.37,-0.10,11.40,97.6,-65
3581,22.630,32.13,1.66,-1.03,-0.74,-1.08,11.40,97.6,-65
3582,22.730,31.64,1.19,-1.08,0.15,-0.49,11.52,97.8,-67
3583,22.814,30.37,0.82,-0.74,0.10,-0.34,11.52,97.8,-67
3584,22.897,29.42,1.12,-1.03,0.05,-0.44,11.52,97.8,-67
3585,22.981,29.42,1.24,-1.18,0.34,-0.20,11.27,97.8,-67
3586,23.065,28.52,0.82,-0.74,0.34,-0.10,11.27,97.8,-67
3587,23.148,27.82,0.86,-0.83,0.15,-0.15,11.27,97.8,-67
3588,23.232,27.31,2.13,-2.11,-0.05,-0.29,11.52,97.9,-70
3589,23.316,26.64,2.11,-2.11,0.00,-0.05,11.52,97.9,-70
3590,23.399,26.11,1.28,-1.27,-0.05,-0.05,11.52,97.9,-70
3591,23.483,26.11,1.08,-1.08,0.00,-0.05,11.27,97.9,-70
3592,23.567,25.61,0.59,-0.59,0.00,0.00,11.27,97.9,-70
3593,23.650,25.23,0.51,-0.49,0.05,-0.15,11.27,97.9,-70
3594,23.734,24.94,1.43,-1.32,0.05,-0.54,11.52,98.0,-74
3595,23.818,24.19,1.19,-1.08,0.10,-0.49,11.52,98.0,-74
3596,23.901,23.63,1.12,-0.98,0.05,-0.54,11.52,98.0,-74
3597,23.985,23.63,1.04,-0.88,0.05,-0.54,11.27,98.0,-74
3598,24.069,23.20,1.01,-0.88,0.10,-0.49,11.27,98.0,-74
3599,24.152,22.94,0.92,-0.83,0.05,-0.39,11.27,98.0,-74
3600,24.236,22.67,1.16,-1.08,0.15,-0.39,11.52,98.1,-70
3601,24.320,22.01,1.09,-1.03,0.10,-0.34,11.52,98.1,-70
3602,24.403,21.51,1.13,-1.08,0.20,-0.29,11.52,98.1,-70
3603,24.487,21.51,1.17,-1.08,0.24,-0.39,11.40,98.1,-70
3604,24.571,21.13,1.18,-1.08,0.39,-0.29,11.40,98.1,-70
3605,24.654,20.91,1.14,-1.03,0.39,-0.29,11.40,98.1,-70
3606,24.738,20.79,1.14,-1.13,0.05,-0.20,11.66,98.3,-81
3607,24.838,20.07,1.27,-1.22,0.15,-0.29,11.66,98.3,-81
3608,24.939,19.54,1.16,-1.13,0.10,-0.24,11.66,98.3,-81
3609,25.040,19.54,1.15,-1.13,0.10,-0.20,11.40,98.3,-81
3610,25.140,19.08,1.09,-1.08,0.10,-0.15,11.40,98.3,-81
3611,25.241,18.81,1.03,-1.03,0.10,-0.05,11.40,98.3,-81
3612,25.341,18.55,1.18,-1.13,0.05,-0.34,11.52,98.4,-77
3613,25.425,17.86,1.14,-1.08,0.10,-0.34,11.52,98.4,-77
3614,25.508,17.42,1.06,-0.98,0.10,-0.39,11.52,98.4,-77
3615,25.592,17.42,1.12,-1.03,0.05,-0.44,11.27,98.4,-77
3616,25.676,16.94,1.15,-1.08,0.10,-0.39,11.27,98.4,-77
3617,25.759,16.62,1.18,-1.13,0.10,-0.34,11.27,98.4,-77
3618,25.843,16.32,1.12,-1.03,0.20,-0.39,11.52,98.5,-71
3619,25.927,15.51,1.16,-1.08,0.24,-0.34,11.52,98.5,-71
3620,26.010,14.97,1.16,-1.08,0.24,-0.34,11.52,98.5,-71
3621,26.094,14.97,1.13,-1.03,0.15,-0.44,11.27,98.5,-71
3622,26.178,14.48,1.18,-1.08,0.20,-0.44,11.27,98.5,-71
3623,26.261,14.14,1.15,-1.03,0.24,-0.44,11.27,98.5,-71
3624,26.345,13.86,1.10,-1.03,0.05,-0.39,11.52,98.5,-59
3625,26.429,13.22,1.09,-1.03,0.10,-0.34,11.52,98.5,-59
3626,26.512,12.74,1.04,-0.98,0.10,-0.34,11.52,98.5,-59
3627,26.596,12.74,1.00,-0.93,0.10,-0.34,11.40,98.5,-59
3628,26.680,12.25,1.02,-0.98,0.05,-0.29,11.40,98.5,-59
3629,26.763,11.92,1.00,-0.93,0.10,-0.34,11.40,98.5,-59
3630,26.847,11.68,1.31,-1.22,0.34,-0.29,11.65,98.6,-55
3631,26.948,10.93,1.18,-1.13,0.29,-0.20,11.65,98.6,-55
3632,27.048,10.35,1.33,-1.27,0.34,-0.15,11.65,98.6,-55
3633,27.148,10.35,1.23,-1.18,0.29,-0.20,11.40,98.6,-55
3634,27.249,9.82,1.17,-1.13,0.20,-0.24,11.40,98.6,-55
3635,27.349,9.40,1.19,-1.13,0.24,-0.29,11.40,98.6,-55
3636,27.450,9.07,1.19,-1.08,0.24,-0.44,11.52,98.7,-55
3637,27.534,8.55,1.15,-1.03,0.24,-0.44,11.52,98.7,-55
3638,27.617,8.20,1.10,-0.98,0.24,-0.44,11.52,98.7,-55
3639,27.701,8.20,1.13,-1.03,0.15,-0.44,11.27,98.7,-55
3640,27.785,7.88,1.08,-0.98,0.05,-0.44,11.27,98.7,-55
3641,27.868,7.55,1.06,-0.98,0.10,-0.39,11.27,98.7,-55
3642,27.952,7.28,1.05,-1.03,0.05,-0.20,11.52,98.8,-55
3643,28.036,6.45,1.07,-1.03,0.05,-0.29,11.52,98.8,-55
3644,28.119,5.85,1.01,-0.98,0.00,-0.24,11.52,98.8,-55
3645,28.203,5.85,1.23,-1.18,0.05,-0.34,11.27,98.8,-55
3646,28.287,5.34,1.26,-1.18,0.05,-0.44,11.27,98.8,-55
3647,28.370,5.01,1.31,-1.22,0.10,-0.44,11.27,98.8,-55
3648,28.454,4.86,1.19,-1.13,0.20,-0.34,11.52,98.9,-69
3649,28.538,4.05,1.26,-1.18,0.29,-0.34,11.52,98.9,-69
3650,28.621,3.51,1.26,-1.18,0.24,-0.39,11.52,98.9,-69
3651,28.705,3.51,1.21,-1.13,0.29,-0.34,11.27,98.9,-69
3652,28.789,3.02,1.18,-1.08,0.39,-0.29,11.27,98.9,-69
3653,28.872,2.67,1.18,-1.08,0.34,-0.34,11.27,98.9,-69
3654,28.956,2.45,1.72,1.32,-0.20,-1.08,11.52,98.9,-91
3655,29.056,1.83,1.21,-0.05,-0.29,-1.18,11.52,98.9,-91
3656,29.157,1.48,1.03,-0.29,-0.15,-0.98,11.52,98.9,-91
3657,29.258,1.48,1.65,0.15,-0.29,-1.62,11.40,98.9,-91
3658,29.358,0.97,12.95,2.30,-0.44,-12.74,11.40,98.9,-91
3659,29.459,0.58,3.59,2.70,0.34,-2.35,11.40,98.9,-91
3660,29.559,0.36,1.15,0.00,-0.24,-1.13,11.52,99.0,-87
3661,29.643,0.01,1.29,-0.05,-0.20,-1.27,11.52,99.0,-87
3662,29.726,-0.20,1.32,0.00,-0.05,-1.32,11.52,99.0,-87
3663,29.810,-0.20,1.27,-0.05,0.00,-1.27,11.27,99.0,-87
3664,29.894,-0.34,1.47,-0.05,0.05,-1.47,11.27,99.0,-87
3665,29.977,-0.35,1.37,0.00,0.05,-1.37,11.27,99.0,-87
3666,30.061,-0.39,1.32,0.00,0.00,-1.32,11.52,99.0,-86
3667,30.145,-0.49,1.27,-0.05,0.00,-1.27,11.52,99.0,-86
3668,30.228,-0.49,1.32,-0.05,-0.05,-1.32,11.52,99.0,-86
3669,30.312,-0.55,1.32,-0.05,0.00,-1.32,11.27,99.0,-86
3670,30.396,-0.61,1.27,0.00,0.00,-1.27,11.27,99.0,-86
3671,30.479,-0.61,1.33,-0.10,-0.05,-1.32,11.27,99.0,-86
3672,30.563,-0.58,1.37,-0.05,0.00,-1.37,11.52,99.1,-86
3673,30.647,-0.65,1.28,-0.10,0.05,-1.27,11.52,99.1,-86
3674,30.730,-0.67,1.32,-0.05,0.00,-1.32,11.52,99.1,-86
3675,30.814,-0.67,1.32,0.00,0.00,-1.32,11.27,99.1,-86
3676,30.898,-0.67,1.32,0.00,0.00,-1.32,11.27,99.1,-86
3677,30.981,-0.64,1.27,-0.05,0.00,-1.27,11.27,99.1,-86
3678,31.065,-0.61,1.32,0.00,0.00,-1.32,11.52,99.2,-86
3679,31.149,-0.65,1.28,-0.10,0.00,-1.27,11.52,99.2,-86
3680,31.233,-0.65,1.32,-0.05,-0.05,-1.32,11.52,99.2,-86
3681,31.317,-0.69,1.27,-0.05,0.00,-1.27,11.40,99.2,-86
3682,31.400,-0.73,1.37,-0.05,-0.05,-1.37,11.40,99.2,-86
3683,31.484,-0.73,1.32,-0.05,-0.05,-1.32,11.40,99.2,-86
3684,31.568,-0.60,1.27,-0.05,0.00,-1.27,11.65,99.2,-96
3685,31.652,-0.61,1.28,-0.05,-0.05,-1.27,11.65,99.2,-96
3686,31.735,-0.61,1.28,-0.10,0.00,-1.27,11.65,99.2,-96
3687,31.819,-0.66,1.32,-0.05,0.00,-1.32,11.40,99.2,-96
3688,31.903,-0.63,1.37,-0.05,0.00,-1.37,11.40,99.2,-96
3689,31.986,-0.63,1.37,-0.05,0.00,-1.37,11.40,99.2,-96
3690,32.070,-0.60,1.32,0.00,0.00,-1.32,11.65,99.3,-87
3691,32.170,-0.67,1.32,0.00,-0.05,-1.32,11.65,99.3,-87
3692,32.271,-0.67,1.32,0.00,0.00,-1.32,11.65,99.3,-87
3693,32.371,-0.65,1.32,-0.05,0.00,-1.32,11.40,99.3,-87
3694,32.471,-0.61,1.28,-0.05,-0.05,-1.27,11.40,99.3,-87
3695,32.572,-0.54,1.32,-0.05,0.00,-1.32,11.40,99.3,-87
3696,32.672,-0.55,1.32,-0.05,-0.05,-1.32,11.52,99.3,-87
3697,32.756,-0.62,1.38,-0.10,-0.05,-1.37,11.52,99.3,-87
3698,32.839,-0.67,1.37,-0.05,0.00,-1.37,11.52,99.3,-87
3699,32.923,-0.67,1.32,0.00,0.00,-1.32,11.27,99.3,-87
3700,33.007,-0.66,1.27,0.00,-0.05,-1.27,11.27,99.3,-87
3701,33.090,-0.73,1.27,0.00,0.00,-1.27,11.27,99.3,-87
3702,33.174,-0.68,1.32,0.00,-0.05,-1.32,11.52,99.3,-90
3703,33.258,-0.71,1.32,0.00,0.00,-1.32,11.52,99.3,-90
3704,33.341,-0.71,1.32,-0.05,0.05,-1.32,11.52,99.3,-90
3705,33.425,-0.68,1.32,-0.05,0.00,-1.32,11.27,99.3,-90
3706,33.509,-0.69,1.32,0.00,0.00,-1.32,11.27,99.3,-90
3707,33.592,-0.69,1.32,0.00,0.05,-1.32,11.27,99.3,-90
3708,33.676,-0.75,1.37,0.00,-0.05,-1.37,11.52,99.4,-89
3709,33.760,-0.68,1.32,0.00,0.00,-1.32,11.52,99.4,-89
3710,33.843,-0.68,1.37,-0.05,0.00,-1.37,11.52,99.4,-89
3711,33.927,-0.71,1.23,-0.05,0.00,-1.22,11.40,99.4,-89
3712,34.011,-0.72,1.32,-0.05,-0.05,-1.32,11.40,99.4,-89
3713,34.094,-0.72,1.32,-0.05,0.00,-1.32,11.40,99.4,-89
3714,34.178,-0.75,1.32,0.00,0.00,-1.32,11.65,99.4,-93
3715,34.262,-0.70,1.32,-0.05,0.00,-1.32,11.65,99.4,-93
3716,34.346,-0.70,1.32,0.00,0.00,-1.32,11.65,99.4,-93
3717,34.429,-0.75,1.32,0.00,-0.05,-1.32,11.40,99.4,-93
3718,34.513,-0.70,1.32,-0.05,0.00,-1.32,11.40,99.4,-93
3719,34.597,-0.70,1.32,-0.05,0.00,-1.32,11.40,99.4,-93
3720,34.681,-0.82,1.37,-0.05,0.00,-1.37,11.65,99.4,-95
3721,34.765,-0.79,1.32,0.00,0.00,-1.32,11.65,99.4,-95
3722,34.848,-0.79,1.37,-0.05,0.00,-1.37,11.65,99.4,-95
3723,34.932,-0.69,1.27,0.00,0.00,-1.27,11.40,99.4,-95
3724,35.016,-0.71,1.33,-0.10,0.00,-1.32,11.40,99.4,-95
3725,35.099,-0.71,1.32,0.00,0.00,-1.32,11.40,99.4,-95
3726,35.183,-0.67,1.32,-0.05,0.00,-1.32,11.65,99.5,-90
3727,35.283,-0.68,1.32,-0.05,0.00,-1.32,11.65,99.5,-90
3728,35.384,-0.68,1.37,-0.05,0.00,-1.37,11.65,99.5,-90
3729,35.484,-0.73,1.37,-0.05,0.00,-1.37,11.40,99.5,-90
3730,35.584,-0.76,1.27,0.00,-0.05,-1.27,11.40,99.5,-90
3731,35.685,-0.76,1.32,-0.05,0.00,-1.32,11.40,99.5,-90
3732,35.785,-0.75,1.42,-0.05,0.00,-1.42,11.52,99.5,-89
3733,35.869,-0.74,1.27,-0.05,0.00,-1.27,11.52,99.5,-89
3734,35.952,-0.74,1.32,-0.05,0.00,-1.32,11.52,99.5,-89
3735,36.036,-0.78,1.27,0.00,-0.05,-1.27,11.40,99.5,-89
3736,36.120,-0.71,1.28,-0.10,0.00,-1.27,11.40,99.5,-89
3737,36.203,-0.71,1.27,0.00,0.00,-1.27,11.40,99.5,-89
3738,36.287,-0.70,1.37,-0.05,0.00,-1.37,11.66,99.5,-88
3739,36.371,-0.70,1.27,-0.05,0.00,-1.27,11.66,99.5,-88
3740,36.454,-0.70,1.27,0.00,0.00,-1.27,11.66,99.5,-88
3741,36.538,-0.70,1.27,0.00,-0.05,-1.27,11.40,99.5,-88
3742,36.622,-0.72,1.37,0.00,-0.05,-1.37,11.40,99.5,-88
3743,36.705,-0.70,1.32,0.00,-0.05,-1.32,11.40,99.5,-88
3744,36.789,-0.66,1.32,-0.05,-0.05,-1.32,11.65,99.6,-95
3745,36.873,-0.74,1.37,0.00,0.00,-1.37,11.65,99.6,-95
3746,36.957,-0.76,1.32,-0.05,0.00,-1.32,11.65,99.6,-95
3747,37.041,-0.76,1.23,-0.05,0.00,-1.22,11.40,99.6,-95
3748,37.124,-0.72,1.23,-0.05,0.00,-1.22,11.40,99.6,-95
3749,37.208,-0.66,1.32,-0.05,0.00,-1.32,11.40,99.6,-95
3750,37.292,-0.66,1.27,-0.05,0.00,-1.27,11.65,99.6,-89
3751,37.376,-0.70,1.32,-0.05,-0.05,-1.32,11.65,99.6,-89
3752,37.459,-0.72,1.32,-0.05,0.00,-1.32,11.65,99.6,-89
3753,37.543,-0.72,1.32,-0.05,0.00,-1.32,11.40,99.6,-89
3754,37.627,-0.76,1.27,-0.05,0.00,-1.27,11.40,99.6,-89
3755,37.710,-0.81,1.28,-0.05,0.05,-1.27,11.40,99.6,-89
3756,37.794,-0.74,1.32,-0.05,0.00,-1.32,11.65,99.6,-90
3757,37.894,-0.74,1.27,0.00,0.00,-1.27,11.65,99.6,-90
3758,37.995,-0.74,1.32,0.00,0.00,-1.32,11.65,99.6,-90
3759,38.096,-0.72,1.32,-0.05,0.00,-1.32,11.54,99.6,-90
3760,38.196,-0.71,1.32,-0.05,0.00,-1.32,11.54,99.6,-90
3761,38.296,-0.71,1.32,0.00,0.00,-1.32,11.54,99.6,-90
3762,38.397,-0.68,1.32,-0.05,0.00,-1.32,11.65,99.6,-89
3763,38.480,-0.65,1.32,-0.05,-0.05,-1.32,11.65,99.6,-89
3764,38.564,-0.65,1.37,0.00,0.00,-1.37,11.65,99.6,-89
3765,38.648,-0.70,1.32,-0.05,0.00,-1.32,11.40,99.6,-89
3766,38.731,-0.62,1.32,-0.05,-0.05,-1.32,11.40,99.6,-89
3767,38.815,-0.63,1.32,0.00,-0.05,-1.32,11.40,99.6,-89
3768,38.898,-0.60,1.32,0.00,0.00,-1.32,11.65,99.7,-93
3769,38.982,-0.62,1.27,-0.05,0.00,-1.27,11.65,99.7,-93
3770,39.066,-0.62,1.27,0.00,0.00,-1.27,11.65,99.7,-93
3771,39.150,-0.67,1.32,-0.05,0.00,-1.32,11.40,99.7,-93
3772,39.233,-0.74,1.32,-0.05,-0.05,-1.32,11.40,99.7,-93
3773,39.317,-0.74,1.27,-0.05,0.00,-1.27,11.40,99.7,-93
3774,39.401,-0.73,1.42,0.00,-0.05,-1.42,11.65,99.7,-87
3775,39.485,-0.74,1.32,-0.05,0.00,-1.32,11.65,99.7,-87
3776,39.568,-0.74,1.28,-0.05,-0.05,-1.27,11.65,99.7,-87
3777,39.652,-0.80,1.28,-0.05,-0.05,-1.27,11.40,99.7,-87
3778,39.736,-0.77,1.32,-0.05,-0.05,-1.32,11.40,99.7,-87
3779,39.819,-0.66,1.32,-0.05,0.00,-1.32,11.40,99.7,-87
3780,39.903,-0.62,1.27,-0.05,0.00,-1.27,11.65,99.7,-90
3781,39.987,-0.64,1.27,-0.05,0.00,-1.27,11.65,99.7,-90
3782,40.070,-0.64,1.27,-0.05,0.00,-1.27,11.65,99.7,-90
3783,40.154,-0.65,1.32,-0.05,0.00,-1.32,11.40,99.7,-90
3784,40.238,-0.70,1.37,0.00,-0.05,-1.37,11.40,99.7,-90
3785,40.321,-0.70,1.32,0.00,-0.05,-1.32,11.40,99.7,-90
3786,40.405,-0.69,1.27,-0.05,0.00,-1.27,11.66,99.7,-93
3787,40.489,-0.70,1.27,0.00,0.00,-1.27,11.66,99.7,-93
3788,40.572,-0.70,1.27,-0.05,0.00,-1.27,11.66,99.7,-93
3789,40.656,-0.73,1.32,-0.05,0.00,-1.32,11.40,99.7,-93
3790,40.740,-0.75,1.27,-0.05,0.00,-1.27,11.40,99.7,-93
3791,40.823,-0.75,1.27,0.00,0.00,-1.27,11.40,99.7,-93
3792,40.907,-0.76,1.27,-0.05,0.00,-1.27,11.65,99.7,-90
3793,41.007,-0.80,1.23,-0.05,-0.05,-1.22,11.65,99.7,-90
3794,41.108,-0.80,1.32,0.00,0.00,-1.32,11.65,99.7,-90
3795,41.208,-0.80,1.37,-0.05,0.00,-1.37,11.54,99.7,-90
3796,41.308,-0.77,1.32,-0.05,0.00,-1.32,11.54,99.7,-90
3797,41.409,-0.76,1.27,-0.05,0.00,-1.27,11.54,99.7,-90
3798,41.509,-0.71,1.32,0.00,0.00,-1.32,11.65,99.7,-90
3799,41.593,-0.73,1.37,0.00,0.00,-1.37,11.65,99.7,-90
3800,41.677,-0.73,1.32,0.00,-0.05,-1.32,11.65,99.7,-90
3801,41.761,-0.72,1.32,-0.05,0.00,-1.32,11.40,99.7,-90
3802,41.844,-0.81,1.27,-0.05,0.00,-1.27,11.40,99.7,-90
3803,41.928,-0.80,1.27,-0.05,0.00,-1.27,11.40,99.7,-90
3804,42.012,-0.75,1.32,-0.05,0.00,-1.32,11.65,99.8,-90
3805,42.096,-0.82,1.28,-0.05,-0.05,-1.27,11.65,99.8,-90
3806,42.179,-0.81,1.32,-0.05,0.00,-1.32,11.65,99.8,-90
3807,42.263,-0.81,1.28,-0.05,-0.05,-1.27,11.40,99.8,-90
3808,42.347,-0.73,1.32,-0.05,0.00,-1.32,11.40,99.8,-90
3809,42.430,-0.75,1.32,-0.05,0.00,-1.32,11.40,99.8,-90
3810,42.514,-0.63,1.37,-0.05,0.00,-1.37,11.65,99.8,-93
3811,42.598,-0.70,1.37,0.00,0.00,-1.37,11.65,99.8,-93
3812,42.681,-0.70,1.32,-0.05,-0.05,-1.32,11.65,99.8,-93
3813,42.765,-0.75,1.27,-0.05,0.00,-1.27,11.40,99.8,-93
3814,42.849,-0.71,1.27,0.00,0.00,-1.27,11.40,99.8,-93
3815,42.932,-0.71,1.32,0.00,0.00,-1.32,11.40,99.8,-93
3816,43.016,-0.67,1.28,-0.05,-0.05,-1.27,11.65,99.8,-95
3817,43.100,-0.74,1.27,0.00,-0.05,-1.27,11.65,99.8,-95
3818,43.183,-0.69,1.27,-0.05,0.00,-1.27,11.65,99.8,-95
3819,43.267,-0.69,1.32,0.00,0.00,-1.32,11.40,99.8,-95
3820,43.351,-0.65,1.32,-0.05,0.00,-1.32,11.40,99.8,-95
3821,43.434,-0.55,1.37,-0.05,0.00,-1.37,11.40,99.8,-95
3822,43.518,-0.55,1.37,0.00,0.00,-1.37,11.65,99.8,-97
3823,43.602,-0.62,1.32,0.00,0.00,-1.32,11.65,99.8,-97
3824,43.686,-0.62,1.32,-0.05,0.00,-1.32,11.65,99.8,-97
3825,43.770,-0.66,1.32,0.00,-0.05,-1.32,11.40,99.8,-97
3826,43.853,-0.68,1.32,-0.05,0.00,-1.32,11.40,99.8,-97
3827,43.937,-0.68,1.32,-0.05,0.00,-1.32,11.40,99.8,-97
3828,44.021,-0.62,1.37,0.00,0.00,-1.37,11.65,99.8,-95
3829,44.121,-0.67,1.27,-0.05,0.00,-1.27,11.65,99.8,-95
3830,44.222,-0.67,1.27,0.00,0.00,-1.27,11.65,99.8,-95
3831,44.322,-0.66,1.32,-0.05,0.00,-1.32,11.54,99.8,-95
3832,44.422,-0.72,1.32,0.00,0.00,-1.32,11.54,99.8,-95
3833,44.523,-0.72,1.32,-0.05,0.00,-1.32,11.54,99.8,-95
3834,44.623,-0.71,1.27,-0.05,0.00,-1.27,11.65,99.8,-92
3835,44.707,-0.72,1.32,-0.05,-0.05,-1.32,11.65,99.8,-92
3836,44.790,-0.72,1.32,-0.05,0.00,-1.32,11.65,99.8,-92
3837,44.874,-0.72,1.32,0.00,-0.05,-1.32,11.40,99.8,-92
3838,44.958,-0.71,1.32,-0.05,0.00,-1.32,11.40,99.8,-92
3839,45.041,-0.68,1.32,-0.05,0.00,-1.32,11.40,99.8,-92
3840,45.125,-0.72,1.33,-0.10,-0.05,-1.32,11.65,99.8,-95
3841,45.209,-0.75,1.37,0.00,0.00,-1.37,11.65,99.8,-95
3842,45.292,-0.67,1.27,-0.05,0.00,-1.27,11.65,99.8,-95
3843,45.376,-0.67,1.37,-0.05,-0.05,-1.37,11.40,99.8,-95
3844,45.460,-0.65,1.27,0.00,-0.05,-1.27,11.40,99.8,-95
3845,45.543,-0.65,1.33,-0.10,0.00,-1.32,11.40,99.8,-95
3846,45.627,-0.65,1.32,0.00,0.00,-1.32,11.65,99.8,-93
3847,45.711,-0.65,1.32,-0.05,0.00,-1.32,11.65,99.8,-93
3848,45.794,-0.65,1.28,-0.10,0.00,-1.27,11.65,99.8,-93
3849,45.878,-0.69,1.28,-0.10,0.00,-1.27,11.40,99.8,-93
3850,45.962,-0.67,1.27,-0.05,0.00,-1.27,11.40,99.8,-93
3851,46.045,-0.58,1.32,-0.05,-0.05,-1.32,11.40,99.8,-93
3852,46.129,-0.64,1.32,-0.05,0.00,-1.32,11.65,99.9,-91
3853,46.213,-0.65,1.28,-0.10,0.00,-1.27,11.65,99.9,-91
3854,46.297,-0.65,1.32,0.00,0.00,-1.32,11.65,99.9,-91
3855,46.380,-0.70,1.37,0.00,0.00,-1.37,11.40,99.9,-91
3856,46.464,-0.73,1.32,-0.05,0.00,-1.32,11.40,99.9,-91
3857,46.548,-0.73,1.27,-0.05,0.00,-1.27,11.40,99.9,-91
3858,46.632,-0.79,1.37,-0.05,0.00,-1.37,11.65,99.9,-91
3859,46.732,-0.77,1.32,-0.05,0.00,-1.32,11.65,99.9,-91
3860,46.833,-0.77,1.32,-0.05,0.00,-1.32,11.65,99.9,-91
3861,46.933,-0.84,1.32,0.00,0.00,-1.32,11.54,99.9,-91
3862,47.033,-0.79,1.32,-0.05,0.00,-1.32,11.54,99.9,-91
3863,47.134,-0.79,1.32,-0.05,0.00,-1.32,11.54,99.9,-91
3864,47.234,-0.80,1.32,0.00,0.00,-1.32,11.66,99.9,-97
3865,47.318,-0.71,1.32,-0.05,0.05,-1.32,11.66,99.9,-97
3866,47.402,-0.71,1.27,0.00,0.00,-1.27,11.66,99.9,-97
3867,47.486,-0.76,1.37,-0.05,-0.05,-1.37,11.40,99.9,-97
3868,47.569,-0.76,1.32,-0.05,0.05,-1.32,11.40,99.9,-97
3869,47.653,-0.71,1.28,-0.05,-0.05,-1.27,11.40,99.9,-97
3870,47.737,-0.66,1.42,0.10,0.00,-1.42,11.65,99.9,-83
3871,47.821,-0.65,1.57,0.10,0.00,-1.57,11.65,99.9,-83
3872,47.904,-0.65,1.43,0.15,0.10,-1.42,11.65,99.9,-83
3873,47.987,-0.68,1.39,0.05,0.44,-1.32,11.40,99.9,-83
3874,48.071,-0.68,1.34,0.00,0.54,-1.22,11.40,99.9,-83
3875,48.154,-0.63,1.26,0.00,0.78,-0.98,11.40,99.9,-83
3876,48.238,-0.61,1.49,-0.34,1.03,-1.03,11.65,99.9,-79
3877,48.322,-0.67,1.47,-0.20,0.98,-1.08,11.65,99.9,-79
3878,48.406,-0.65,1.29,-0.15,0.83,-0.98,11.65,99.9,-79
3879,48.489,-0.65,1.27,-0.10,0.74,-1.03,11.40,99.9,-79
3880,48.573,-0.59,1.29,-0.15,0.83,-0.98,11.40,99.9,-79
3881,48.657,-0.56,1.25,-0.10,0.88,-0.88,11.40,99.9,-79
3882,48.741,-0.50,1.41,-0.39,1.03,-0.88,11.65,99.9,-83
3883,48.825,-0.58,1.43,-0.44,1.08,-0.83,11.65,99.9,-83
3884,48.908,-0.49,1.46,-0.44,1.03,-0.93,11.65,99.9,-83
3885,48.992,-0.49,1.44,-0.49,1.03,-0.88,11.40,99.9,-83
3886,49.076,-0.53,1.44,-0.49,0.98,-0.93,11.40,99.9,-83
3887,49.159,-0.48,1.23,-0.44,0.88,-0.74,11.40,99.9,-83
3888,49.243,-0.43,1.74,0.10,0.24,-1.72,11.65,99.9,-85
3889,49.343,-0.52,1.50,0.15,0.44,-1.42,11.65,99.9,-85
3890,49.444,-0.51,1.54,0.20,0.10,-1.52,11.65,99.9,-85
3891,49.544,-0.51,1.72,0.15,0.00,-1.72,11.40,99.9,-85
3892,49.644,-0.51,2.73,0.15,0.39,-2.70,11.40,99.9,-85
3893,49.745,-0.51,1.67,0.00,0.15,-1.67,11.40,99.9,-85
3894,49.845,-0.57,1.21,-0.64,-0.29,-0.98,11.52,99.9,-77
3895,49.929,-0.64,1.07,-0.59,-0.15,-0.88,11.52,99.9,-77
3896,50.012,-0.58,0.98,-0.59,0.00,-0.78,11.52,99.9,-77
3897,50.096,-0.58,0.84,-0.49,0.05,-0.69,11.40,99.9,-77
3898,50.180,-0.60,1.20,-0.24,0.00,-1.18,11.40,99.9,-77
3899,50.263,-0.65,1.07,-0.29,0.10,-1.03,11.40,99.9,-77
3900,50.347,-0.56,1.31,-0.20,0.54,-1.18,11.65,99.9,-76
3901,50.431,-0.55,1.22,-0.29,0.49,-1.08,11.65,99.9,-76
3902,50.514,-0.60,1.13,-0.15,0.54,-0.98,11.65,99.9,-76
3903,50.598,-0.60,1.07,-0.20,0.49,-0.93,11.40,99.9,-76
3904,50.682,-0.57,1.23,-0.20,0.64,-1.03,11.40,99.9,-76
3905,50.765,-0.54,1.56,-0.29,0.98,-1.18,11.40,99.9,-76
3906,50.849,-0.52,1.20,-0.44,0.54,-0.98,11.65,99.9,-74
3907,50.933,-0.56,1.52,-0.15,0.64,-1.37,11.65,99.9,-74
3908,51.016,-0.56,1.47,-0.24,0.69,-1.27,11.65,99.9,-74
3909,51.100,-0.56,1.36,-0.29,0.78,-1.08,11.40,99.9,-74
3910,51.184,-0.63,0.98,-0.39,0.34,-0.83,11.40,99.9,-74
3911,51.267,-0.60,1.54,-0.34,0.29,-1.47,11.40,99.9,-74
3912,51.351,-0.52,1.56,0.05,0.74,-1.37,11.65,99.9,-72
3913,51.451,-0.59,1.65,0.15,0.64,-1.52,11.65,99.9,-72
3914,51.552,-0.52,1.46,0.05,0.49,-1.37,11.65,99.9,-72
3915,51.653,-0.52,1.30,0.05,0.44,-1.22,11.40,99.9,-72
3916,51.753,-0.58,1.46,0.05,0.78,-1.22,11.40,99.9,-72
3917,51.853,-0.53,1.66,0.10,0.93,-1.37,11.40,99.9,-72
3918,51.954,-0.53,1.12,-0.10,0.74,-0.83,11.52,99.9,-74
3919,52.038,-0.59,1.21,-0.05,0.83,-0.88,11.52,99.9,-74
3920,52.121,-0.63,1.17,-0.24,0.83,-0.78,11.52,99.9,-74
3921,52.204,-0.63,1.22,-0.15,0.88,-0.83,11.27,99.9,-74
3922,52.288,-0.66,1.26,-0.15,0.78,-0.98,11.27,99.9,-74
3923,52.371,-0.60,3.29,0.83,1.52,-2.79,11.27,99.9,-74
3924,52.455,-0.48,1.24,-0.29,0.44,-1.13,11.52,99.9,-83
3925,52.539,-0.60,1.25,-0.34,0.54,-1.08,11.52,99.9,-83
3926,52.622,-0.61,1.29,-0.39,0.59,-1.08,11.52,99.9,-83
3927,52.706,-0.61,1.21,-0.39,0.49,-1.03,11.27,99.9,-83
3928,52.790,-0.64,1.30,-0.34,0.44,-1.18,11.27,99.9,-83
3929,52.873,-0.63,1.33,-0.15,0.34,-1.27,11.27,99.9,-83
3930,52.957,-0.57,1.52,0.05,0.39,-1.47,11.52,99.9,-75
3931,53.041,-0.62,1.82,0.15,0.44,-1.76,11.52,99.9,-75
3932,53.124,-0.66,1.61,0.00,0.34,-1.57,11.52,99.9,-75
3933,53.208,-0.66,1.54,-0.10,0.44,-1.47,11.40,99.9,-75
3934,53.292,-0.66,1.58,-0.29,0.29,-1.52,11.40,99.9,-75
3935,53.375,-0.63,1.31,-0.29,0.34,-1.22,11.40,99.9,-75
3936,53.459,-0.62,2.28,0.64,0.39,-2.16,11.66,99.9,-67
3937,53.559,-0.66,1.44,0.54,0.39,-1.27,11.66,99.9,-67
3938,53.660,-0.62,1.27,0.05,0.49,-1.18,11.66,99.9,-67
3939,53.760,-0.62,1.85,0.10,0.69,-1.72,11.40,99.9,-67
3940,53.860,-0.69,1.17,-0.05,0.44,-1.08,11.40,99.9,-67
3941,53.961,-0.68,1.21,-0.05,0.44,-1.13,11.40,99.9,-67
3942,54.061,-0.60,1.75,0.39,1.13,-1.27,11.52,99.9,-70
3943,54.145,-0.65,1.49,0.34,1.03,-1.03,11.52,99.9,-70
3944,54.228,-0.62,1.38,0.24,1.03,-0.88,11.52,99.9,-70
3945,54.311,-0.62,1.55,0.24,1.18,-0.98,11.27,99.9,-70
3946,54.395,-0.61,1.29,0.10,0.98,-0.83,11.27,99.9,-70
3947,54.478,-0.61,1.41,0.15,1.13,-0.83,11.27,99.9,-70
3948,54.562,-0.63,1.21,0.05,1.13,-0.44,11.53,99.9,-66
3949,54.646,-0.68,1.27,0.00,1.18,-0.49,11.53,99.9,-66
3950,54.730,-0.71,1.21,0.00,1.13,-0.44,11.53,99.9,-66
3951,54.813,-0.71,1.26,0.05,1.18,-0.44,11.27,99.9,-66
3952,54.897,-0.68,1.34,-0.05,1.22,-0.54,11.27,99.9,-66
3953,54.981,-0.65,1.27,-0.05,1.18,-0.49,11.27,99.9,-66
3954,55.065,-0.60,1.26,0.00,1.18,-0.44,11.53,99.9,-70
3955,55.148,-0.62,1.32,-0.05,1.22,-0.49,11.53,99.9,-70
3956,55.232,-0.60,1.23,0.00,1.13,-0.49,11.53,99.9,-70
3957,55.316,-0.60,1.26,-0.05,1.18,-0.44,11.27,99.9,-70
3958,55.399,-0.66,1.35,-0.05,1.27,-0.44,11.27,99.9,-70
3959,55.483,-0.71,1.27,0.00,1.18,-0.49,11.27,99.9,-70
3960,55.566,-0.66,1.27,0.00,1.18,-0.49,11.53,100.0,-71
3961,55.650,-0.71,1.29,-0.05,1.22,-0.39,11.53,100.0,-71
3962,55.733,-0.66,1.29,-0.05,1.22,-0.39,11.53,100.0,-71
3963,55.817,-0.66,1.27,-0.05,1.18,-0.49,11.40,100.0,-71
3964,55.901,-0.62,1.30,0.00,1.22,-0.44,11.40,100.0,-71
3965,55.984,-0.58,1.35,-0.05,1.27,-0.44,11.40,100.0,-71
3966,56.068,-0.52,1.26,-0.05,1.18,-0.44,11.66,100.0,-65
3967,56.168,-0.54,1.29,-0.05,1.22,-0.39,11.66,100.0,-65
3968,56.268,-0.51,1.27,0.00,1.18,-0.49,11.66,100.0,-65
3969,56.368,-0.51,1.32,0.00,1.22,-0.49,11.41,100.0,-65
3970,56.468,-0.58,1.27,-0.05,1.18,-0.49,11.41,100.0,-65
3971,56.568,-0.64,1.26,0.00,1.18,-0.44,11.41,100.0,-65
3972,56.668,-0.64,1.26,0.00,1.18,-0.44,11.53,100.0,-65
3973,56.752,-0.72,1.21,0.00,1.13,-0.44,11.53,100.0,-65
3974,56.836,-0.74,1.28,-0.10,1.22,-0.34,11.53,100.0,-65
3975,56.920,-0.74,1.34,-0.05,1.22,-0.54,11.27,100.0,-65
3976,57.004,-0.81,1.26,-0.05,1.18,-0.44,11.27,100.0,-65
3977,57.088,-0.77,1.27,-0.05,1.18,-0.49,11.27,100.0,-65
3978,57.172,-0.74,1.26,-0.05,1.18,-0.44,11.53,100.0,-66
3979,57.256,-0.80,1.26,-0.05,1.18,-0.44,11.53,100.0,-66
3980,57.339,-0.78,1.32,-0.05,1.22,-0.49,11.53,100.0,-66
3981,57.423,-0.78,1.27,0.00,1.18,-0.49,11.27,100.0,-66
3982,57.507,-0.80,1.32,-0.05,1.22,-0.49,11.27,100.0,-66
3983,57.590,-0.70,1.29,-0.05,1.18,-0.54,11.27,100.0,-66
3984,57.674,-0.64,1.26,-0.05,1.18,-0.44,11.53,100.0,-66
3985,57.758,-0.77,1.32,-0.05,1.22,-0.49,11.53,100.0,-66
3986,57.841,-0.75,1.27,-0.05,1.18,-0.49,11.53,100.0,-66
3987,57.925,-0.75,1.19,0.00,1.13,-0.39,11.27,100.0,-66
3988,58.009,-0.81,1.30,0.00,1.22,-0.44,11.27,100.0,-66
3989,58.092,-0.82,1.26,-0.05,1.18,-0.44,11.27,100.0,-66
3990,58.176,-0.77,1.29,0.00,1.18,-0.54,11.53,100.0,-65
3991,58.276,-0.80,1.26,0.00,1.18,-0.44,11.53,100.0,-65
3992,58.377,-0.80,1.27,-0.05,1.18,-0.49,11.53,100.0,-65
3993,58.477,-0.80,1.18,0.00,1.13,-0.34,11.41,100.0,-65
3994,58.577,-0.77,1.23,0.00,1.13,-0.49,11.41,100.0,-65
3995,58.678,-0.77,1.27,0.00,1.18,-0.49,11.41,100.0,-65
3996,58.778,-0.78,1.30,-0.05,1.22,-0.44,11.53,100.0,-64
3997,58.861,-0.77,1.26,0.00,1.18,-0.44,11.53,100.0,-64
3998,58.945,-0.78,1.32,0.00,1.22,-0.49,11.53,100.0,-64
3999,59.029,-0.78,1.26,-0.05,1.18,-0.44,11.27,100.0,-64
4000,59.112,-0.72,1.26,0.00,1.18,-0.44,11.27,100.0,-64
4001,59.196,-0.72,1.24,0.00,1.18,-0.39,11.27,100.0,-64
4002,59.279,-0.68,1.21,-0.05,1.13,-0.44,11.53,100.0,-65
4003,59.363,-0.73,1.24,0.00,1.18,-0.39,11.53,100.0,-65
4004,59.447,-0.66,1.24,-0.05,1.18,-0.39,11.53,100.0,-65
4005,59.531,-0.66,1.35,-0.05,1.27,-0.44,11.27,100.0,-65
4006,59.615,-0.68,1.29,0.00,1.18,-0.54,11.27,100.0,-65
4007,59.699,-0.71,1.29,-0.05,1.22,-0.39,11.27,100.0,-65
4008,59.783,-0.59,1.27,0.00,1.18,-0.49,11.53,100.0,-66
4009,59.867,-0.61,1.27,-0.05,1.18,-0.49,11.53,100.0,-66
4010,59.950,-0.61,1.23,0.00,1.13,-0.49,11.53,100.0,-66
4011,60.034,-0.70,1.30,-0.05,1.22,-0.44,11.27,100.0,-66
4012,60.118,-0.73,1.34,0.00,1.22,-0.54,11.27,100.0,-66
4013,60.201,-0.67,1.26,-0.05,1.18,-0.44,11.27,100.0,-66
4014,60.285,-0.63,1.21,-0.05,1.13,-0.44,11.53,100.0,-66
4015,60.369,-0.68,1.33,-0.05,1.27,-0.39,11.53,100.0,-66
4016,60.452,-0.66,1.24,0.00,1.18,-0.39,11.53,100.0,-66
4017,60.536,-0.66,1.26,0.00,1.18,-0.44,11.41,100.0,-66
4018,60.620,-0.72,1.26,0.00,1.18,-0.44,11.41,100.0,-66
4019,60.703,-0.68,1.26,0.00,1.18,-0.44,11.41,100.0,-66
4020,60.787,-0.70,1.19,0.00,1.13,-0.39,11.66,100.0,-65
4021,60.887,-0.71,1.23,0.00,1.13,-0.49,11.66,100.0,-65
4022,60.988,-0.71,1.27,0.00,1.18,-0.49,11.66,100.0,-65
4023,61.088,-0.68,1.24,0.00,1.18,-0.39,11.40,100.0,-65
4024,61.188,-0.62,1.32,0.00,1.22,-0.49,11.40,100.0,-65
4025,61.289,-0.52,1.26,0.00,1.18,-0.44,11.40,100.0,-65
4026,61.389,-0.56,1.29,0.00,1.18,-0.54,11.53,100.0,-65
4027,61.473,-0.59,1.26,-0.05,1.18,-0.44,11.53,100.0,-65
4028,61.556,-0.59,1.26,-0.05,1.18,-0.44,11.53,100.0,-65
4029,61.640,-0.63,1.23,0.00,1.13,-0.49,11.27,100.0,-65
4030,61.724,-0.65,1.26,0.00,1.18,-0.44,11.27,100.0,-65
4031,61.807,-0.65,1.21,0.00,1.13,-0.44,11.27,100.0,-65
4032,61.891,-0.68,1.24,-0.05,1.18,-0.39,11.53,100.0,-64
4033,61.975,-0.66,1.26,-0.05,1.18,-0.44,11.53,100.0,-64
4034,62.059,-0.61,1.24,-0.10,1.18,-0.39,11.53,100.0,-64
4035,62.142,-0.61,1.27,0.00,1.18,-0.49,11.27,100.0,-64
4036,62.226,-0.61,1.30,-0.05,1.22,-0.44,11.27,100.0,-64
4037,62.310,-0.63,1.24,-0.05,1.18,-0.39,11.27,100.0,-64
4038,62.394,-0.65,1.23,0.00,1.13,-0.49,11.53,100.0,-63
4039,62.478,-0.74,1.27,0.00,1.18,-0.49,11.53,100.0,-63
4040,62.561,-0.74,1.29,-0.05,1.18,-0.54,11.53,100.0,-63
4041,62.645,-0.66,1.27,-0.05,1.18,-0.49,11.40,100.0,-63
4042,62.729,-0.68,1.27,0.00,1.18,-0.49,11.40,100.0,-63
4043,62.812,-0.67,1.30,-0.05,1.22,-0.44,11.40,100.0,-63
4044,62.896,-0.71,1.24,-0.10,1.18,-0.39,11.66,100.0,-64
4045,62.980,-0.68,1.26,0.00,1.18,-0.44,11.66,100.0,-64
4046,63.063,-0.67,1.30,0.00,1.22,-0.44,11.66,100.0,-64
4047,63.147,-0.67,1.30,0.00,1.22,-0.44,11.40,100.0,-64
4048,63.231,-0.66,1.27,-0.05,1.18,-0.49,11.40,100.0,-64
4049,63.314,-0.64,1.30,-0.05,1.22,-0.44,11.40,100.0,-64
4050,63.398,-0.59,1.24,0.00,1.18,-0.39,11.66,100.0,-65
4051,63.498,-0.68,1.24,0.00,1.18,-0.39,11.66,100.0,-65
4052,63.599,-0.68,1.29,0.00,1.22,-0.39,11.66,100.0,-65
4053,63.699,-0.78,1.29,-0.05,1.22,-0.39,11.40,100.0,-65
4054,63.799,-0.81,1.24,-0.05,1.18,-0.39,11.40,100.0,-65
4055,63.900,-0.77,1.26,0.00,1.18,-0.44,11.40,100.0,-65
4056,64.000,-0.68,1.22,0.00,1.18,-0.34,11.53,100.0,-67
4057,64.084,-0.74,1.18,0.00,1.13,-0.34,11.53,100.0,-67
4058,64.167,-0.73,1.26,0.00,1.18,-0.44,11.53,100.0,-67
4059,64.251,-0.73,1.26,-0.05,1.18,-0.44,11.27,100.0,-67
4060,64.335,-0.69,1.30,-0.05,1.22,-0.44,11.27,100.0,-67
4061,64.418,-0.67,1.30,-0.05,1.22,-0.44,11.27,100.0,-67
4062,64.502,-0.59,1.26,0.00,1.18,-0.44,11.52,100.0,-64
4063,64.586,-0.62,1.26,-0.05,1.18,-0.44,11.52,100.0,-64
4064,64.669,-0.62,1.24,0.00,1.18,-0.39,11.52,100.0,-64
4065,64.753,-0.71,1.29,-0.05,1.22,-0.39,11.27,100.0,-64
4066,64.837,-0.69,1.30,0.00,1.22,-0.44,11.27,100.0,-64
4067,64.920,-0.69,1.30,-0.05,1.22,-0.44,11.27,100.0,-64
4068,65.004,-0.72,1.26,0.00,1.18,-0.44,11.52,100.0,-61
4069,65.088,-0.75,1.29,-0.05,1.22,-0.39,11.52,100.0,-61
4070,65.172,-0.75,1.29,0.00,1.22,-0.39,11.52,100.0,-61
4071,65.256,-0.79,1.26,-0.05,1.18,-0.44,11.40,100.0,-61
4072,65.339,-0.74,1.29,0.00,1.22,-0.39,11.40,100.0,-61
4073,65.423,-0.71,1.24,-0.05,1.18,-0.39,11.40,100.0,-61
4074,65.507,-0.68,1.30,-0.05,1.22,-0.44,11.65,100.0,-60
4075,65.591,-0.71,1.30,-0.05,1.22,-0.44,11.65,100.0,-60
4076,65.674,-0.70,1.30,-0.05,1.22,-0.44,11.65,100.0,-60
4077,65.758,-0.70,1.29,-0.05,1.22,-0.39,11.40,100.0,-60
4078,65.842,-0.70,1.27,-0.05,1.18,-0.49,11.40,100.0,-60
4079,65.925,-0.67,1.30,0.00,1.22,-0.44,11.40,100.0,-60
4080,66.009,-0.66,1.21,-0.05,1.13,-0.44,11.66,100.0,-61
4081,66.109,-0.73,1.29,-0.05,1.22,-0.39,11.66,100.0,-61
4082,66.210,-0.74,1.26,0.00,1.18,-0.44,11.66,100.0,-61
4083,66.310,-0.74,1.26,0.00,1.18,-0.44,11.40,100.0,-61
4084,66.410,-0.68,1.24,-0.05,1.18,-0.39,11.40,100.0,-61
4085,66.511,-0.74,1.26,-0.05,1.18,-0.44,11.40,100.0,-61
4086,66.611,-0.65,1.26,-0.05,1.18,-0.44,11.52,100.0,-70
4087,66.695,-0.72,1.27,0.00,1.18,-0.49,11.52,100.0,-70
4088,66.778,-0.71,1.26,-0.05,1.18,-0.44,11.52,100.0,-70
4089,66.862,-0.71,1.19,-0.05,1.13,-0.39,11.27,100.0,-70
4090,66.946,-0.75,1.24,-0.05,1.18,-0.39,11.27,100.0,-70
4091,67.029,-0.72,1.24,-0.05,1.18,-0.39,11.27,100.0,-70
4092,67.113,-0.71,1.27,-0.05,1.18,-0.49,11.52,100.0,-66
4093,67.197,-0.70,1.32,0.00,1.22,-0.49,11.52,100.0,-66
4094,67.280,-0.67,1.24,0.00,1.18,-0.39,11.52,100.0,-66
4095,67.364,-0.67,1.27,0.00,1.18,-0.49,11.40,100.0,-66
4096,67.448,-0.71,1.32,0.00,1.22,-0.49,11.40,100.0,-66
4097,67.531,-0.66,1.26,0.00,1.18,-0.44,11.40,100.0,-66
4098,67.615,-0.65,1.30,-0.05,1.22,-0.44,11.66,100.0,-67
4099,67.699,-0.76,1.24,-0.05,1.18,-0.39,11.66,100.0,-67
4100,67.783,-0.82,1.32,0.00,1.22,-0.49,11.66,100.0,-67
4101,67.867,-0.82,1.26,-0.05,1.18,-0.44,11.40,100.0,-67
4102,67.950,-0.79,1.24,0.00,1.18,-0.39,11.40,100.0,-67
4103,68.034,-0.72,1.29,0.00,1.22,-0.39,11.40,100.0,-67
4104,68.118,-0.65,1.27,-0.05,1.18,-0.49,11.65,100.0,-70
4105,68.218,-0.70,1.32,0.00,1.22,-0.49,11.65,100.0,-70
4106,68.319,-0.69,1.26,0.00,1.18,-0.44,11.65,100.0,-70
4107,68.419,-0.69,1.27,0.00,1.18,-0.49,11.40,100.0,-70
4108,68.519,-0.68,1.24,-0.05,1.18,-0.39,11.40,100.0,-70
4109,68.620,-0.69,1.21,-0.05,1.13,-0.44,11.40,100.0,-70
4110,68.720,-0.59,1.30,0.00,1.22,-0.44,11.52,100.0,-68
4111,68.804,-0.62,1.52,0.00,-0.05,1.52,11.52,100.0,-68
4112,68.887,-0.59,1.49,0.00,1.08,-1.03,11.52,100.0,-68
4113,68.971,-0.59,0.97,-0.05,0.74,-0.64,11.27,100.0,-68
4114,69.055,-0.68,1.29,0.00,1.18,-0.54,11.27,100.0,-68
4115,69.138,-0.71,1.23,-0.05,1.13,-0.49,11.27,100.0,-68
4116,69.222,-0.64,1.18,0.00,1.18,-0.05,11.52,100.0,-65
4117,69.306,-0.71,1.18,0.05,1.18,0.00,11.52,100.0,-65
4118,69.389,-0.71,1.18,0.10,1.18,0.00,11.52,100.0,-65
4119,69.473,-0.75,1.08,0.00,1.08,0.10,11.27,100.0,-65
4120,69.557,-0.76,0.92,0.24,0.88,0.10,11.27,100.0,-65
4121,69.640,-0.76,0.80,0.10,0.78,0.10,11.27,100.0,-65
4122,69.724,-0.73,1.33,0.10,1.03,-0.83,11.52,100.0,-72
4123,69.808,-0.71,1.36,0.10,1.03,-0.88,11.52,100.0,-72
4124,69.891,-0.71,1.42,0.10,1.18,-0.78,11.52,100.0,-72
4125,69.975,-0.71,1.26,0.15,0.98,-0.78,11.40,100.0,-72
4126,70.059,-0.70,1.26,0.15,0.93,-0.83,11.40,100.0,-72
4127,70.142,-0.64,1.26,0.15,0.98,-0.78,11.40,100.0,-72
4128,70.226,-0.62,0.83,0.15,0.78,-0.24,11.66,100.0,-68
4129,70.310,-0.60,1.03,0.10,0.98,-0.29,11.66,100.0,-68
4130,70.393,-0.58,1.26,0.10,1.22,-0.29,11.66,100.0,-68
4131,70.477,-0.58,1.34,0.05,1.32,-0.20,11.40,100.0,-68
4132,70.561,-0.63,1.59,0.24,1.57,-0.15,11.40,100.0,-68
4133,70.644,-0.59,1.61,0.24,1.57,-0.24,11.40,100.0,-68
4134,70.728,-0.48,0.95,0.34,0.88,0.10,11.66,100.0,-58
4135,70.828,-0.51,1.04,0.34,0.98,0.10,11.66,100.0,-58
4136,70.929,-0.50,1.03,0.39,0.93,0.20,11.66,100.0,-58
4137,71.029,-0.50,0.93,0.29,0.83,0.29,11.40,100.0,-58
4138,71.130,-0.40,0.79,0.29,0.69,0.24,11.40,100.0,-58
4139,71.231,-0.26,0.90,0.24,0.83,0.24,11.40,100.0,-58
4140,71.331,-0.21,0.95,0.15,0.93,0.10,11.52,100.0,-54
4141,71.415,-0.18,0.89,0.10,0.88,0.05,11.52,100.0,-54
4142,71.498,-0.09,0.96,0.24,0.93,0.00,11.52,100.0,-54
4143,71.582,-0.09,0.99,0.10,0.98,-0.05,11.27,100.0,-54
4144,71.666,-0.10,1.08,0.10,1.08,-0.05,11.27,100.0,-54
4145,71.749,-0.10,0.99,0.10,0.98,-0.10,11.27,100.0,-54
4146,71.833,0.03,1.01,0.24,0.98,-0.05,11.52,100.0,-55
4147,71.917,-0.03,1.00,0.20,0.98,-0.05,11.52,100.0,-55
4148,72.000,-0.02,1.02,0.29,0.98,-0.05,11.52,100.0,-55
4149,72.084,-0.02,1.03,0.29,0.98,-0.10,11.27,100.0,-55
4150,72.168,0.02,0.96,0.24,0.93,-0.05,11.27,100.0,-55
4151,72.251,0.03,1.01,0.24,0.98,-0.10,11.27,100.0,-55
4152,72.335,0.04,1.12,0.39,0.49,-0.93,11.52,100.0,-58
4153,72.419,-0.01,1.07,0.44,0.69,-0.69,11.52,100.0,-58
4154,72.502,-0.02,1.06,0.44,0.88,-0.39,11.52,100.0,-58
4155,72.586,-0.02,1.17,0.49,1.03,-0.24,11.40,100.0,-58
4156,72.670,-0.06,1.35,0.39,1.27,-0.24,11.40,100.0,-58
4157,72.753,-0.03,1.32,0.39,1.22,-0.29,11.40,100.0,-58
4158,72.837,0.04,1.28,0.29,1.13,-0.54,11.66,100.0,-56
4159,72.937,-0.04,1.21,0.34,1.03,-0.54,11.66,100.0,-56
4160,73.037,-0.06,0.99,0.20,0.83,-0.49,11.66,100.0,-56
4161,73.138,-0.06,0.98,0.24,0.78,-0.54,11.40,100.0,-56
4162,73.238,-0.05,1.08,0.05,0.93,-0.54,11.40,100.0,-56
4163,73.338,-0.08,1.01,0.05,0.88,-0.49,11.40,100.0,-56
4164,73.438,0.00,1.26,0.00,1.18,-0.44,11.53,100.0,-54
4165,73.522,-0.05,1.35,0.05,1.27,-0.44,11.53,100.0,-54
4166,73.605,-0.09,1.40,0.00,1.37,-0.29,11.53,100.0,-54
4167,73.689,-0.09,1.43,0.00,1.37,-0.39,11.27,100.0,-54
4168,73.773,-0.14,1.31,0.05,1.27,-0.29,11.27,100.0,-54
4169,73.856,-0.11,1.23,0.05,1.18,-0.34,11.27,100.0,-54
4170,73.940,-0.06,1.52,-0.10,1.52,-0.05,11.53,100.0,-53
4171,74.024,-0.15,1.49,-0.10,1.47,-0.20,11.53,100.0,-53
4172,74.108,-0.14,1.43,-0.05,1.42,-0.15,11.53,100.0,-53
4173,74.191,-0.14,1.23,0.00,1.22,-0.15,11.27,100.0,-53
4174,74.275,-0.20,1.19,0.00,1.18,-0.20,11.27,100.0,-53
4175,74.359,-0.20,1.23,-0.05,1.22,-0.10,11.27,100.0,-53
4176,74.443,-0.15,1.17,-0.24,1.13,-0.20,11.53,100.0,-55
4177,74.527,-0.04,1.13,-0.15,1.08,-0.29,11.53,100.0,-55
4178,74.610,0.00,1.18,-0.24,1.13,-0.24,11.53,100.0,-55
4179,74.694,0.00,1.26,-0.20,1.22,-0.20,11.27,100.0,-55
4180,74.778,0.06,1.20,-0.20,1.18,-0.15,11.27,100.0,-55
4181,74.861,0.08,1.28,-0.10,1.27,-0.10,11.27,100.0,-55
4182,74.945,0.15,1.08,-0.10,1.08,0.05,11.53,100.0,-58
4183,75.045,0.16,1.09,-0.15,1.08,0.00,11.53,100.0,-58
4184,75.146,0.12,1.15,-0.20,1.13,0.10,11.53,100.0,-58
4185,75.246,0.12,1.19,-0.20,1.18,0.00,11.40,100.0,-58
4186,75.346,0.11,1.06,-0.24,1.03,0.05,11.40,100.0,-58
4187,75.447,0.06,1.09,-0.15,1.08,0.05,11.40,100.0,-58
4188,75.547,0.15,1.11,-0.24,1.08,0.05,11.53,100.0,-57
4189,75.631,0.10,1.10,-0.15,1.08,0.15,11.53,100.0,-57
4190,75.714,0.08,1.14,-0.34,1.08,0.10,11.53,100.0,-57
4191,75.798,0.08,1.07,-0.29,1.03,0.10,11.27,100.0,-57
4192,75.882,0.05,1.11,-0.24,1.08,0.05,11.27,100.0,-57
4193,75.965,0.05,1.17,-0.29,1.13,0.05,11.27,100.0,-57
4194,76.049,0.17,1.13,0.00,1.13,-0.05,11.52,100.0,-60
4195,76.133,0.23,1.18,-0.05,1.18,-0.05,11.52,100.0,-60
4196,76.216,0.23,1.23,-0.10,1.22,-0.05,11.52,100.0,-60
4197,76.300,0.11,1.18,-0.10,1.18,0.00,11.27,100.0,-60
4198,76.384,0.16,1.18,-0.05,1.18,0.00,11.27,100.0,-60
4199,76.467,0.16,1.23,-0.05,1.22,0.05,11.27,100.0,-60
4200,76.551,0.21,1.09,-0.15,1.08,0.05,11.52,100.0,-57
4201,76.635,0.13,1.08,-0.05,1.08,0.05,11.52,100.0,-57
4202,76.719,0.12,1.14,-0.15,1.13,0.00,11.52,100.0,-57
4203,76.803,0.12,1.08,-0.05,1.08,0.05,11.27,100.0,-57
4204,76.886,0.05,1.08,-0.05,1.08,0.00,11.27,100.0,-57
4205,76.970,0.03,1.18,-0.10,1.18,0.05,11.27,100.0,-57
4206,77.054,0.10,1.03,-0.05,1.03,0.05,11.53,100.0,-56
4207,77.138,0.00,1.08,-0.05,1.08,0.05,11.53,100.0,-56
4208,77.221,0.03,1.03,-0.05,1.03,0.10,11.53,100.0,-56
4209,77.305,0.03,1.04,-0.10,1.03,0.10,11.40,100.0,-56
4210,77.389,0.01,1.09,-0.10,1.08,0.10,11.40,100.0,-56
4211,77.472,0.05,1.09,-0.10,1.08,0.15,11.40,100.0,-56
4212,77.556,0.05,1.08,-0.10,1.08,0.05,11.66,100.0,-57
4213,77.656,0.03,1.14,-0.15,1.13,0.10,11.66,100.0,-57
4214,77.757,0.09,1.08,-0.10,1.08,0.05,11.66,100.0,-57
4215,77.858,0.09,1.04,-0.15,1.03,0.05,11.40,100.0,-57
4216,77.958,0.07,1.09,-0.10,1.08,0.10,11.40,100.0,-57
4217,78.059,0.14,1.08,-0.10,1.08,0.05,11.40,100.0,-57
4218,78.159,0.18,1.19,-0.15,1.18,0.10,11.52,100.0,-57
4219,78.242,0.22,1.15,-0.20,1.13,0.10,11.52,100.0,-57
4220,78.326,0.18,1.18,-0.10,1.18,0.05,11.52,100.0,-57
4221,78.409,0.18,1.23,-0.10,1.22,0.10,11.27,100.0,-57
4222,78.492,0.13,1.14,-0.15,1.13,0.05,11.27,100.0,-57
4223,78.576,0.10,1.10,-0.15,1.08,0.15,11.27,100.0,-57
4224,78.659,0.19,1.14,-0.15,1.13,0.05,11.53,100.0,-57
4225,78.743,0.13,1.18,-0.15,1.18,0.00,11.53,100.0,-57
4226,78.827,0.14,1.14,-0.15,1.13,0.05,11.53,100.0,-57
4227,78.911,0.14,1.14,-0.15,1.13,0.05,11.27,100.0,-57
4228,78.994,0.13,1.14,-0.15,1.13,0.05,11.27,100.0,-57
4229,79.078,0.17,1.14,-0.15,1.13,0.10,11.27,100.0,-57
4230,79.162,0.25,1.21,-0.29,1.18,0.00,11.53,100.0,-57
4231,79.246,0.25,1.24,-0.20,1.22,0.05,11.53,100.0,-57
4232,79.329,0.25,1.19,-0.15,1.18,0.10,11.53,100.0,-57
4233,79.413,0.25,1.15,-0.24,1.13,0.05,11.27,100.0,-57
4234,79.497,0.05,1.10,-0.20,1.08,0.05,11.27,100.0,-57
4235,79.580,0.00,1.15,-0.24,1.13,0.05,11.27,100.0,-57
4236,79.664,0.10,1.07,-0.29,1.03,0.10,11.53,100.0,-56
4237,79.764,0.12,1.07,-0.29,1.03,0.05,11.53,100.0,-56
4238,79.865,0.11,1.06,-0.24,1.03,0.05,11.53,100.0,-56
4239,79.965,0.11,1.22,-0.29,1.18,0.10,11.40,100.0,-56
4240,80.065,0.11,1.11,-0.24,1.08,0.00,11.40,100.0,-56
4241,80.166,0.11,1.14,-0.20,1.13,0.00,11.40,100.0,-56
4242,80.266,0.20,1.08,-0.44,0.98,0.05,11.53,100.0,-56
4243,80.350,0.17,1.12,-0.44,1.03,0.05,11.53,100.0,-56
4244,80.434,0.16,1.16,-0.54,1.03,0.05,11.53,100.0,-56
4245,80.518,0.16,1.10,-0.49,0.98,0.10,11.27,100.0,-56
4246,80.601,0.08,1.17,-0.44,1.08,0.05,11.27,100.0,-56
4247,80.685,0.07,1.16,-0.44,1.08,0.00,11.27,100.0,-56
4248,80.769,0.18,0.98,-0.29,0.93,-0.10,11.53,100.0,-57
4249,80.853,0.15,0.97,-0.24,0.93,-0.15,11.53,100.0,-57
4250,80.936,0.17,0.98,-0.29,0.93,-0.05,11.53,100.0,-57
4251,81.020,0.17,0.98,-0.29,0.93,-0.10,11.27,100.0,-57
4252,81.104,0.10,1.01,-0.24,0.98,-0.05,11.27,100.0,-57
4253,81.187,0.16,1.04,-0.34,0.98,0.00,11.27,100.0,-57
4254,81.271,0.24,1.01,-0.39,0.93,0.00,11.53,100.0,-63
4255,81.355,0.21,1.04,-0.34,0.98,0.05,11.53,100.0,-63
4256,81.438,0.21,1.16,-0.44,1.08,0.00,11.53,100.0,-63
4257,81.522,0.18,1.21,-0.44,1.13,-0.10,11.27,100.0,-63
4258,81.606,0.23,1.17,-0.44,1.08,0.05,11.27,100.0,-63
4259,81.689,0.28,1.12,-0.44,1.03,-0.05,11.27,100.0,-63
4260,81.773,0.27,1.17,-0.54,1.03,-0.10,11.53,100.0,-63
4261,81.857,0.22,1.21,-0.54,1.08,-0.10,11.53,100.0,-63
4262,81.940,0.22,1.15,-0.49,1.03,-0.15,11.53,100.0,-63
4263,82.024,0.22,1.12,-0.44,1.03,-0.10,11.40,100.0,-63
4264,82.108,0.22,1.21,-0.44,1.13,-0.10,11.40,100.0,-63
4265,82.191,0.23,1.17,-0.44,1.08,-0.10,11.40,100.0,-63
4266,82.275,0.27,1.43,-0.39,1.37,-0.05,11.66,100.0,-64
4267,82.376,0.23,1.46,-0.49,1.37,0.00,11.66,100.0,-64
4268,82.476,0.20,1.46,-0.49,1.37,0.00,11.66,100.0,-64
4269,82.577,0.20,1.40,-0.44,1.32,-0.10,11.40,100.0,-64
4270,82.677,0.28,1.33,-0.49,1.22,-0.15,11.40,100.0,-64
4271,82.778,0.23,1.36,-0.59,1.22,-0.10,11.40,100.0,-64
4272,82.878,0.37,1.25,-0.64,1.08,-0.05,11.52,100.0,-65
4273,82.962,0.31,1.30,-0.54,1.18,-0.10,11.52,100.0,-65
4274,83.045,0.27,1.31,-0.59,1.18,0.00,11.52,100.0,-65
4275,83.129,0.27,1.30,-0.54,1.18,-0.10,11.27,100.0,-65
4276,83.213,0.27,1.23,-0.49,1.13,-0.05,11.27,100.0,-65
4277,83.296,0.22,1.17,-0.44,1.08,-0.05,11.27,100.0,-65
4278,83.380,0.37,0.88,-0.29,0.83,0.00,11.52,100.0,-63
4279,83.464,0.35,1.04,-0.34,0.98,-0.05,11.52,100.0,-63
4280,83.547,0.35,1.04,-0.34,0.98,0.00,11.52,100.0,-63
4281,83.631,0.32,1.28,-0.34,1.22,-0.10,11.27,100.0,-63
4282,83.715,0.30,1.18,-0.34,1.13,-0.05,11.27,100.0,-63
4283,83.798,0.31,1.29,-0.39,1.22,0.00,11.27,100.0,-63
4284,83.882,0.26,1.08,-0.44,0.98,-0.05,11.52,100.0,-63
4285,83.966,0.22,1.12,-0.44,1.03,-0.05,11.52,100.0,-63
4286,84.050,0.24,1.10,-0.39,1.03,-0.05,11.52,100.0,-63
4287,84.133,0.24,1.08,-0.44,0.98,-0.10,11.40,100.0,-63
4288,84.217,0.30,1.10,-0.39,1.03,-0.05,11.40,100.0,-63
4289,84.301,0.36,1.03,-0.44,0.93,-0.10,11.40,100.0,-63
4290,84.385,0.38,1.21,-0.29,1.18,0.00,11.65,100.0,-72
4291,84.485,0.41,1.11,-0.24,1.08,0.00,11.65,100.0,-72
4292,84.585,0.35,1.07,-0.29,1.03,-0.05,11.65,100.0,-72
4293,84.686,0.35,1.05,-0.20,1.03,-0.05,11.40,100.0,-72
4294,84.786,0.34,0.96,-0.20,0.93,-0.10,11.40,100.0,-72
4295,84.886,0.35,0.91,-0.20,0.88,-0.10,11.40,100.0,-72
4296,84.986,0.42,1.23,-0.10,1.22,0.00,11.52,100.0,-69
4297,85.070,0.33,1.24,-0.20,1.22,-0.05,11.52,100.0,-69
4298,85.154,0.28,1.10,-0.20,1.08,-0.05,11.52,100.0,-69
4299,85.238,0.28,1.14,-0.20,1.13,-0.05,11.27,100.0,-69
4300,85.321,0.25,1.14,-0.20,1.13,0.05,11.27,100.0,-69
4301,85.405,0.29,1.09,-0.15,1.08,0.05,11.27,100.0,-69
4302,85.489,0.34,1.05,0.20,1.03,-0.05,11.52,100.0,-73
4303,85.573,0.32,1.00,0.34,0.93,-0.10,11.52,100.0,-73
4304,85.656,0.30,1.00,0.20,0.98,0.05,11.52,100.0,-73
4305,85.740,0.30,1.14,0.05,1.13,0.20,11.27,100.0,-73
4306,85.824,0.19,1.38,-0.10,1.37,0.15,11.27,100.0,-73
4307,85.907,0.16,1.23,-0.05,1.22,0.00,11.27,100.0,-73
4308,85.991,0.23,1.19,-0.15,1.18,-0.05,11.52,100.0,-76
4309,86.075,0.13,1.09,-0.15,1.08,-0.10,11.52,100.0,-76
4310,86.158,0.01,1.03,-0.05,1.03,0.00,11.52,100.0,-76
4311,86.242,0.01,1.04,-0.10,1.03,0.10,11.27,100.0,-76
4312,86.326,-0.02,1.05,-0.05,1.03,0.20,11.27,100.0,-76
4313,86.409,-0.05,1.08,-0.15,1.03,0.29,11.27,100.0,-76
4314,86.493,-0.05,1.13,0.00,1.13,0.10,11.52,100.0,-80
4315,86.577,-0.12,1.11,0.00,1.08,0.24,11.52,100.0,-80
4316,86.660,-0.12,1.18,0.00,1.18,0.15,11.52,100.0,-80
4317,86.744,-0.20,1.14,0.00,1.13,0.15,11.40,100.0,-80
4318,86.828,-0.19,1.13,-0.05,1.13,0.10,11.40,100.0,-80
4319,86.911,-0.12,1.08,-0.05,1.08,0.10,11.40,100.0,-80
4320,86.995,-0.19,0.98,0.10,0.98,0.00,11.66,100.0,-75
4321,87.095,-0.32,1.21,0.29,1.18,0.00,11.66,100.0,-75
4322,87.196,-0.32,1.20,0.24,1.18,0.05,11.66,100.0,-75
4323,87.296,-0.43,1.89,0.29,1.86,0.05,11.40,100.0,-75
4324,87.396,-0.43,1.88,0.24,1.86,0.05,11.40,100.0,-75
4325,87.497,-0.49,1.07,-0.15,1.03,0.24,11.40,100.0,-75
4326,87.597,-0.49,1.32,0.00,1.32,-0.05,11.52,100.0,-80
4327,87.681,-0.47,1.37,0.00,1.37,0.00,11.52,100.0,-80
4328,87.765,-0.48,1.57,-0.05,1.57,0.05,11.52,100.0,-80
4329,87.849,-0.48,1.47,0.00,1.47,0.05,11.27,100.0,-80
4330,87.932,-0.55,1.34,0.00,1.32,-0.20,11.27,100.0,-80
4331,88.016,-0.54,1.37,0.00,1.32,-0.34,11.27,100.0,-80
4332,88.100,-0.52,1.35,0.20,1.32,-0.20,11.52,100.0,-88
4333,88.184,-0.47,1.18,0.05,1.18,-0.05,11.52,100.0,-88
4334,88.267,-0.48,1.09,0.15,1.08,0.00,11.52,100.0,-88
4335,88.351,-0.48,1.14,0.20,1.13,0.00,11.27,100.0,-88
4336,88.435,-0.52,1.20,0.24,1.18,-0.05,11.27,100.0,-88
4337,88.518,-0.47,1.20,0.20,1.18,-0.10,11.27,100.0,-88
4338,88.602,-0.38,1.14,0.10,1.13,-0.10,11.52,100.0,-76
4339,88.686,-0.64,1.44,0.24,1.42,0.05,11.52,100.0,-76
4340,88.769,-0.60,1.29,0.00,1.27,-0.20,11.52,100.0,-76
4341,88.853,-0.60,1.29,0.05,1.27,-0.20,11.40,100.0,-76
4342,88.937,-0.58,1.14,0.05,1.13,-0.20,11.40,100.0,-76
4343,89.020,-0.55,1.19,0.00,1.18,-0.20,11.40,100.0,-76
4344,89.104,-0.55,0.53,-0.05,-0.49,0.20,11.65,100.0,-76
4345,89.204,-0.60,0.58,-0.05,-0.54,0.20,11.65,100.0,-76
4346,89.305,-0.61,0.51,-0.05,-0.49,0.15,11.65,100.0,-76
4347,89.405,-0.61,0.56,-0.05,-0.54,0.15,11.40,100.0,-76
4348,89.505,-0.71,0.58,-0.05,-0.54,0.20,11.40,100.0,-76
4349,89.606,-0.71,0.56,-0.05,-0.54,0.15,11.40,100.0,-76
4350,89.706,-0.64,0.56,-0.05,-0.54,0.15,11.52,100.0,-77
4351,89.790,-0.67,0.56,-0.05,-0.54,0.15,11.52,100.0,-77
4352,89.873,-0.64,0.56,-0.05,-0.54,0.15,11.52,100.0,-77
4353,89.957,-0.64,0.67,-0.05,-0.64,0.20,11.27,100.0,-77
4354,90.041,-0.67,0.63,-0.10,-0.59,0.20,11.27,100.0,-77
4355,90.124,-0.57,0.56,-0.05,-0.54,0.15,11.27,100.0,-77
4356,90.208,-0.51,0.61,0.00,-0.59,0.15,11.52,100.0,-81
4357,90.292,-0.49,0.62,-0.05,-0.59,0.20,11.52,100.0,-81
4358,90.375,-0.49,0.59,0.00,-0.54,0.24,11.52,100.0,-81
4359,90.459,-0.49,0.62,-0.05,-0.59,0.20,11.27,100.0,-81
4360,90.543,-0.53,0.58,-0.05,-0.54,0.20,11.27,100.0,-81
4361,90.626,-0.51,0.67,-0.05,-0.64,0.20,11.27,100.0,-81
4362,90.710,-0.53,0.63,-0.10,-0.59,0.20,11.52,100.0,-82
4363,90.794,-0.60,0.58,-0.05,-0.54,0.20,11.52,100.0,-82
4364,90.878,-0.63,0.62,-0.05,-0.59,0.20,11.52,100.0,-82
4365,90.962,-0.63,0.62,0.00,-0.59,0.20,11.27,100.0,-82
4366,91.045,-0.70,0.62,-0.05,-0.59,0.20,11.27,100.0,-82
4367,91.129,-0.66,0.64,-0.05,-0.59,0.24,11.27,100.0,-82
4368,91.213,-0.63,0.61,-0.05,-0.59,0.15,11.52,100.0,-81
4369,91.297,-0.65,0.57,0.00,-0.54,0.20,11.52,100.0,-81
4370,91.380,-0.62,0.63,-0.10,-0.59,0.20,11.52,100.0,-81
4371,91.464,-0.62,0.62,-0.05,-0.59,0.20,11.40,100.0,-81
4372,91.548,-0.65,0.67,-0.05,-0.64,0.20,11.40,100.0,-81
4373,91.631,-0.63,0.58,-0.10,-0.54,0.20,11.40,100.0,-81
4374,91.715,-0.60,0.58,-0.05,-0.54,0.20,11.66,100.0,-81
4375,91.815,-0.64,0.62,-0.05,-0.59,0.20,11.66,100.0,-81
4376,91.916,-0.58,0.61,-0.05,-0.59,0.15,11.66,100.0,-81
4377,92.016,-0.58,0.56,-0.05,-0.54,0.15,11.40,100.0,-81
4378,92.116,-0.66,0.61,-0.10,-0.59,0.15,11.40,100.0,-81
4379,92.217,-0.65,0.62,-0.05,-0.59,0.20,11.40,100.0,-81
4380,92.317,-0.52,0.57,-0.10,-0.54,0.15,11.52,100.0,-81
4381,92.400,-0.51,0.63,-0.10,-0.59,0.20,11.52,100.0,-81
4382,92.484,-0.55,0.58,-0.05,-0.54,0.20,11.52,100.0,-81
4383,92.567,-0.55,0.63,-0.10,-0.59,0.20,11.27,100.0,-81
4384,92.651,-0.59,0.58,-0.05,-0.54,0.20,11.27,100.0,-81
4385,92.734,-0.59,0.62,-0.05,-0.59,0.20,11.27,100.0,-81
4386,92.818,-0.52,0.62,-0.05,-0.59,0.20,11.53,100.0,-81
4387,92.902,-0.53,0.61,0.00,-0.59,0.15,11.53,100.0,-81
4388,92.985,-0.56,0.57,-0.10,-0.54,0.15,11.53,100.0,-81
4389,93.069,-0.56,0.57,-0.10,-0.54,0.15,11.27,100.0,-81
4390,93.153,-0.63,0.62,-0.05,-0.59,0.20,11.27,100.0,-81
4391,93.236,-0.66,0.57,-0.10,-0.54,0.15,11.27,100.0,-81
4392,93.320,-0.55,0.64,-0.10,-0.59,0.24,11.53,100.0,-81
4393,93.404,-0.61,0.62,-0.05,-0.59,0.20,11.53,100.0,-81
4394,93.487,-0.63,0.57,-0.10,-0.54,0.15,11.53,100.0,-81
4395,93.571,-0.63,0.59,-0.05,-0.54,0.24,11.40,100.0,-81
4396,93.655,-0.65,0.62,-0.05,-0.59,0.20,11.40,100.0,-81
4397,93.738,-0.70,0.58,-0.05,-0.54,0.20,11.40,100.0,-81
4398,93.822,-0.65,0.57,-0.10,-0.54,0.15,11.66,100.0,-81
4399,93.922,-0.63,0.58,-0.05,-0.54,0.20,11.66,100.0,-81
4400,94.023,-0.60,0.51,-0.05,-0.49,0.15,11.66,100.0,-81
4401,94.124,-0.60,0.62,-0.05,-0.59,0.20,11.40,100.0,-81
4402,94.224,-0.67,0.59,-0.05,-0.54,0.24,11.40,100.0,-81
4403,94.325,-0.72,0.61,-0.05,-0.59,0.15,11.40,100.0,-81
4404,94.425,-0.63,0.64,-0.15,-0.59,0.20,11.53,100.0,-81
4405,94.508,-0.68,0.61,0.00,-0.59,0.15,11.53,100.0,-81
4406,94.592,-0.65,0.64,-0.10,-0.59,0.24,11.53,100.0,-81
4407,94.675,-0.65,0.62,-0.05,-0.59,0.20,11.27,100.0,-81
4408,94.759,-0.65,0.62,-0.05,-0.59,0.20,11.27,100.0,-81
4409,94.843,-0.65,0.61,-0.05,-0.59,0.15,11.27,100.0,-81
4410,94.926,-0.63,0.61,-0.10,-0.59,0.15,11.53,100.0,-79
4411,95.010,-0.62,0.58,-0.05,-0.54,0.20,11.53,100.0,-79
4412,95.093,-0.65,0.51,-0.05,-0.49,0.15,11.53,100.0,-79
4413,95.177,-0.65,0.59,-0.05,-0.54,0.24,11.27,100.0,-79
4414,95.261,-0.76,0.62,-0.05,-0.59,0.20,11.27,100.0,-79
4415,95.344,-0.71,0.57,-0.10,-0.54,0.15,11.27,100.0,-79
4416,95.428,-0.66,0.61,-0.05,-0.59,0.15,11.53,100.0,-77
4417,95.512,-0.71,0.58,-0.05,-0.54,0.20,11.53,100.0,-77
4418,95.595,-0.61,0.64,0.00,-0.59,0.24,11.53,100.0,-77
4419,95.679,-0.61,0.58,-0.10,-0.54,0.20,11.27,100.0,-77
4420,95.763,-0.66,0.62,-0.05,-0.59,0.20,11.27,100.0,-77
4421,95.846,-0.64,0.58,-0.10,-0.54,0.20,11.27,100.0,-77
4422,95.930,-0.52,0.63,-0.10,-0.59,0.20,11.53,100.0,-80
4423,96.030,-0.51,0.56,-0.05,-0.54,0.15,11.53,100.0,-80
4424,96.131,-0.52,0.56,-0.05,-0.54,0.15,11.53,100.0,-80
4425,96.231,-0.52,0.64,-0.05,-0.59,0.24,11.40,100.0,-80
4426,96.331,-0.58,0.62,-0.05,-0.59,0.20,11.40,100.0,-80
4427,96.432,-0.50,0.61,-0.05,-0.59,0.15,11.40,100.0,-80
4428,96.532,-0.51,0.61,0.00,-0.59,0.15,11.53,100.0,-76
4429,96.616,-0.60,0.68,0.00,-0.64,0.24,11.53,100.0,-76
4430,96.699,-0.60,0.58,-0.05,-0.54,0.20,11.53,100.0,-76
4431,96.783,-0.60,0.58,-0.05,-0.54,0.20,11.27,100.0,-76
4432,96.867,-0.62,0.58,-0.05,-0.54,0.20,11.27,100.0,-76
4433,96.950,-0.61,0.62,0.00,-0.59,0.20,11.27,100.0,-76
4434,97.034,-0.62,0.58,-0.10,-0.54,0.20,11.53,100.0,-82
4435,97.118,-0.71,0.61,-0.05,-0.59,0.15,11.53,100.0,-82
4436,97.201,-0.67,0.56,-0.05,-0.54,0.15,11.53,100.0,-82
4437,97.285,-0.67,0.53,-0.05,-0.49,0.20,11.27,100.0,-82
4438,97.369,-0.75,0.58,-0.05,-0.54,0.20,11.27,100.0,-82
4439,97.452,-0.77,0.61,0.00,-0.59,0.15,11.27,100.0,-82
4440,97.536,-0.63,0.63,-0.10,-0.59,0.20,11.53,100.0,-84
4441,97.620,-0.67,0.56,-0.05,-0.54,0.15,11.53,100.0,-84
4442,97.703,-0.63,0.58,-0.10,-0.54,0.20,11.53,100.0,-84
4443,97.787,-0.63,0.68,-0.05,-0.64,0.24,11.27,100.0,-84
4444,97.871,-0.66,0.59,-0.05,-0.54,0.24,11.27,100.0,-84
4445,97.954,-0.67,0.62,-0.05,-0.59,0.20,11.27,100.0,-84
4446,98.038,-0.61,0.55,-0.05,-0.54,0.10,11.53,100.0,-83
4447,98.122,-0.63,0.58,-0.05,-0.54,0.20,11.53,100.0,-83
4448,98.205,-0.63,0.58,-0.05,-0.54,0.20,11.53,100.0,-83
4449,98.289,-0.63,0.56,-0.05,-0.54,0.15,11.40,100.0,-83
4450,98.373,-0.63,0.59,0.00,-0.54,0.24,11.40,100.0,-83
4451,98.456,-0.60,0.62,-0.05,-0.59,0.20,11.40,100.0,-83
4452,98.540,-0.58,0.61,-0.05,-0.59,0.15,11.66,100.0,-77
4453,98.641,-0.61,0.62,-0.05,-0.59,0.20,11.66,100.0,-77
4454,98.741,-0.60,0.59,-0.05,-0.54,0.24,11.66,100.0,-77
4455,98.841,-0.60,0.56,-0.05,-0.54,0.15,11.40,100.0,-77
4456,98.942,-0.64,0.53,-0.05,-0.49,0.20,11.40,100.0,-77
4457,99.043,-0.67,0.62,-0.05,-0.59,0.20,11.40,100.0,-77
4458,99.143,-0.62,0.66,-0.05,-0.64,0.15,11.53,100.0,-79
4459,99.227,-0.64,0.61,-0.10,-0.59,0.15,11.53,100.0,-79
4460,99.310,-0.66,0.61,-0.10,-0.59,0.15,11.53,100.0,-79
4461,99.394,-0.66,0.60,-0.10,-0.54,0.24,11.27,100.0,-79
4462,99.478,-0.67,0.63,-0.10,-0.59,0.20,11.27,100.0,-79
4463,99.561,-0.72,0.56,-0.05,-0.54,0.15,11.27,100.0,-79
4464,99.645,-0.62,0.58,-0.05,-0.54,0.20,11.53,100.0,-76
4465,99.729,-0.68,0.59,-0.05,-0.54,0.24,11.53,100.0,-76
4466,99.812,-0.71,0.63,-0.10,-0.59,0.20,11.53,100.0,-76
4467,99.896,-0.71,0.57,0.00,-0.54,0.20,11.27,100.0,-76
4468,99.980,-0.74,0.58,-0.05,-0.54,0.20,11.27,100.0,-76
4469,100.063,-0.75,0.58,-0.10,-0.54,0.20,11.27,100.0,-76
4470,100.147,-0.71,0.61,-0.10,-0.59,0.15,11.53,100.0,-76
4471,100.231,-0.68,0.62,-0.05,-0.59,0.20,11.53,100.0,-76
4472,100.314,-0.68,0.62,-0.05,-0.59,0.20,11.53,100.0,-76
4473,100.398,-0.68,0.56,-0.05,-0.54,0.15,11.27,100.0,-76
4474,100.482,-0.71,0.51,-0.05,-0.49,0.15,11.27,100.0,-76
4475,100.565,-0.68,0.61,0.00,-0.59,0.15,11.27,100.0,-76
4476,100.649,-0.66,0.61,-0.05,-0.59,0.15,11.53,100.0,-75
4477,100.749,-0.62,0.58,-0.05,-0.54,0.20,11.53,100.0,-75
4478,100.850,-0.61,0.56,-0.05,-0.54,0.15,11.53,100.0,-75
4479,100.950,-0.61,0.62,-0.05,-0.59,0.20,11.40,100.0,-75
4480,101.050,-0.70,0.62,0.00,-0.59,0.20,11.40,100.0,-75
4481,101.151,-0.72,0.58,-0.05,-0.54,0.20,11.40,100.0,-75
4482,101.251,-0.74,0.66,-0.05,-0.64,0.15,11.53,100.0,-75
4483,101.335,-0.76,0.62,-0.05,-0.59,0.20,11.53,100.0,-75
4484,101.418,-0.75,0.59,-0.05,-0.54,0.24,11.53,100.0,-75
4485,101.502,-0.75,0.62,-0.05,-0.59,0.20,11.27,100.0,-75
4486,101.586,-0.67,0.57,-0.10,-0.54,0.15,11.27,100.0,-75
4487,101.669,-0.68,0.53,-0.05,-0.49,0.20,11.27,100.0,-75
4488,101.753,-0.66,0.58,-0.10,-0.54,0.20,11.53,100.0,-73
4489,101.837,-0.64,0.56,-0.05,-0.54,0.15,11.53,100.0,-73
4490,101.920,-0.56,0.58,-0.05,-0.54,0.20,11.53,100.0,-73
4491,102.004,-0.56,0.61,-0.05,-0.59,0.15,11.27,100.0,-73
4492,102.088,-0.60,0.58,-0.05,-0.54,0.20,11.27,100.0,-73
4493,102.171,-0.60,0.62,-0.05,-0.59,0.20,11.27,100.0,-73
4494,102.255,-0.52,0.66,-0.05,-0.64,0.15,11.53,100.0,-77
4495,102.339,-0.64,0.58,-0.10,-0.54,0.20,11.53,100.0,-77
4496,102.422,-0.58,0.61,0.00,-0.59,0.15,11.53,100.0,-77
4497,102.506,-0.58,0.58,-0.10,-0.54,0.20,11.27,100.0,-77
4498,102.590,-0.63,0.61,-0.05,-0.59,0.15,11.27,100.0,-77
4499,102.673,-0.61,0.58,-0.05,-0.54,0.20,11.27,100.0,-77
4500,102.757,-0.59,0.67,-0.05,-0.64,0.20,11.53,100.0,-82
4501,102.841,-0.66,0.64,-0.05,-0.59,0.24,11.53,100.0,-82
4502,102.925,-0.67,0.59,-0.05,-0.54,0.24,11.53,100.0,-82
4503,103.008,-0.67,0.58,-0.05,-0.54,0.20,11.40,100.0,-82
4504,103.092,-0.70,0.56,-0.05,-0.54,0.15,11.40,100.0,-82
4505,103.176,-0.66,0.62,-0.05,-0.59,0.20,11.40,100.0,-82
4506,103.260,-0.52,0.56,-0.05,-0.54,0.15,11.66,100.0,-80
4507,103.360,-0.60,0.62,0.00,-0.59,0.20,11.66,100.0,-80
4508,103.461,-0.58,0.61,-0.05,-0.59,0.15,11.66,100.0,-80
4509,103.561,-0.58,0.59,-0.05,-0.54,0.24,11.40,100.0,-80
4510,103.661,-0.63,0.58,-0.05,-0.54,0.20,11.40,100.0,-80
4511,103.762,-0.62,0.53,-0.05,-0.49,0.20,11.40,100.0,-80
4512,103.862,-0.66,0.61,-0.05,-0.59,0.15,11.52,100.0,-81
4513,103.946,-0.73,0.58,-0.05,-0.54,0.20,11.52,100.0,-81
4514,104.029,-0.62,0.64,-0.05,-0.59,0.24,11.52,100.0,-81
4515,104.113,-0.62,0.58,-0.05,-0.54,0.20,11.27,100.0,-81
4516,104.197,-0.72,0.61,-0.05,-0.59,0.15,11.27,100.0,-81
4517,104.280,-0.68,0.62,-0.05,-0.54,0.29,11.27,100.0,-81
4518,104.364,-0.63,0.66,-0.10,-0.64,0.15,11.52,100.0,-77
4519,104.448,-0.62,0.58,-0.05,-0.54,0.20,11.52,100.0,-77
4520,104.531,-0.64,0.67,-0.05,-0.64,0.20,11.52,100.0,-77
4521,104.615,-0.64,0.62,-0.10,-0.54,0.29,11.27,100.0,-77
4522,104.699,-0.73,0.62,-0.05,-0.59,0.20,11.27,100.0,-77
4523,104.782,-0.65,0.62,-0.05,-0.59,0.20,11.27,100.0,-77
4524,104.866,-0.54,0.62,-0.05,-0.59,0.20,11.52,100.0,-80
4525,104.950,-0.57,0.59,-0.05,-0.54,0.24,11.52,100.0,-80
4526,105.033,-0.61,0.61,-0.05,-0.59,0.15,11.52,100.0,-80
4527,105.117,-0.61,0.58,-0.10,-0.54,0.20,11.40,100.0,-80
4528,105.201,-0.70,0.67,-0.05,-0.64,0.20,11.40,100.0,-80
4529,105.284,-0.62,0.58,-0.05,-0.54,0.20,11.40,100.0,-80
4530,105.368,-0.63,0.62,-0.05,-0.59,0.20,11.66,100.0,-90
4531,105.468,-0.68,0.58,-0.05,-0.54,0.20,11.66,100.0,-90
4532,105.569,-0.65,0.52,-0.10,-0.49,0.15,11.66,100.0,-90
4533,105.669,-0.65,0.61,-0.15,-0.54,0.24,11.40,100.0,-90
4534,105.770,-0.73,0.57,0.00,-0.54,0.20,11.40,100.0,-90
4535,105.871,-0.74,0.60,-0.10,-0.54,0.24,11.40,100.0,-90
4536,105.971,-0.81,0.61,-0.05,-0.59,0.15,11.52,100.0,-86
4537,106.055,-0.80,0.56,-0.05,-0.54,0.15,11.52,100.0,-86
4538,106.138,-0.75,0.62,-0.05,-0.59,0.20,11.52,100.0,-86
4539,106.222,-0.75,0.58,-0.05,-0.54,0.20,11.27,100.0,-86
4540,106.306,-0.74,0.58,-0.10,-0.54,0.20,11.27,100.0,-86
4541,106.389,-0.66,0.62,-0.05,-0.59,0.20,11.27,100.0,-86
4542,106.473,-0.63,0.62,-0.05,-0.59,0.20,11.52,100.0,-79
4543,106.557,-0.57,0.59,-0.05,-0.54,0.24,11.52,100.0,-79
4544,106.640,-0.60,0.62,-0.05,-0.59,0.20,11.52,100.0,-79
4545,106.724,-0.60,0.58,-0.05,-0.54,0.20,11.27,100.0,-79
4546,106.808,-0.66,0.61,-0.05,-0.59,0.15,11.27,100.0,-79
4547,106.891,-0.64,0.64,-0.05,-0.59,0.24,11.27,100.0,-79
4548,106.975,-0.65,0.55,-0.05,-0.54,0.10,11.52,100.0,-86
4549,107.059,-0.63,0.62,-0.05,-0.59,0.20,11.52,100.0,-86
4550,107.142,-0.61,0.64,-0.05,-0.59,0.24,11.52,100.0,-86
4551,107.226,-0.61,0.63,-0.10,-0.59,0.20,11.27,100.0,-86
4552,107.310,-0.65,0.58,-0.05,-0.54,0.20,11.27,100.0,-86
4553,107.393,-0.64,0.56,-0.05,-0.54,0.15,11.27,100.0,-86
4554,107.477,-0.55,0.58,-0.05,-0.54,0.20,11.52,100.0,-81
4555,107.577,-0.56,0.56,-0.05,-0.54,0.15,11.52,100.0,-81
4556,107.678,-0.58,0.61,-0.05,-0.59,0.15,11.52,100.0,-81
4557,107.778,-0.58,0.58,-0.05,-0.54,0.20,11.40,100.0,-81
4558,107.878,-0.66,0.58,-0.05,-0.54,0.20,11.40,100.0,-81
4559,107.979,-0.60,0.59,-0.05,-0.54,0.24,11.40,100.0,-81
4560,108.079,-0.54,0.61,-0.05,-0.59,0.15,11.52,100.0,-87
4561,108.163,-0.57,0.61,-0.05,-0.59,0.15,11.52,100.0,-87
4562,108.246,-0.57,0.60,-0.10,-0.54,0.24,11.52,100.0,-87
4563,108.330,-0.57,0.54,-0.10,-0.49,0.20,11.27,100.0,-87
4564,108.414,-0.62,0.58,-0.05,-0.54,0.20,11.27,100.0,-87
4565,108.497,-0.63,0.58,-0.10,-0.54,0.20,11.27,100.0,-87
4566,108.581,-0.59,0.56,-0.05,-0.54,0.15,11.52,100.0,-86
4567,108.665,-0.67,0.62,-0.05,-0.59,0.20,11.52,100.0,-86
4568,108.748,-0.60,0.60,-0.10,-0.54,0.24,11.52,100.0,-86
4569,108.832,-0.60,0.58,-0.10,-0.54,0.20,11.27,100.0,-86
4570,108.916,-0.60,0.63,-0.10,-0.59,0.20,11.27,100.0,-86
4571,108.999,-0.57,0.67,-0.05,-0.64,0.20,11.27,100.0,-86
4572,109.083,-0.51,0.61,-0.05,-0.59,0.15,11.52,100.0,-85
4573,109.167,-0.55,0.62,-0.05,-0.59,0.20,11.52,100.0,-85
4574,109.250,-0.56,0.57,-0.10,-0.54,0.15,11.52,100.0,-85
4575,109.334,-0.56,0.63,-0.10,-0.59,0.20,11.27,100.0,-85
4576,109.418,-0.58,0.58,-0.10,-0.54,0.20,11.27,100.0,-85
4577,109.501,-0.57,0.54,-0.10,-0.49,0.20,11.27,100.0,-85
4578,109.585,-0.61,0.57,-0.10,-0.54,0.15,11.52,100.0,-86
4579,109.669,-0.67,0.58,-0.05,-0.54,0.20,11.52,100.0,-86
4580,109.752,-0.61,0.66,-0.05,-0.59,0.29,11.52,100.0,-86
4581,109.836,-0.61,0.64,-0.05,-0.59,0.24,11.40,100.0,-86
4582,109.920,-0.67,0.60,-0.10,-0.54,0.24,11.40,100.0,-86
4583,110.003,-0.66,0.61,-0.05,-0.59,0.15,11.40,100.0,-86
4584,110.087,-0.64,0.62,-0.05,-0.59,0.20,11.66,100.0,-81
4585,110.187,-0.68,0.52,-0.10,-0.49,0.15,11.66,100.0,-81
4586,110.288,-0.67,0.55,0.00,-0.49,0.24,11.66,100.0,-81
4587,110.388,-0.67,0.58,-0.05,-0.54,0.20,11.40,100.0,-81
4588,110.488,-0.67,0.63,-0.10,-0.59,0.20,11.40,100.0,-81
4589,110.589,-0.69,0.59,0.00,-0.54,0.24,11.40,100.0,-81
4590,110.689,-0.69,0.57,-0.10,-0.54,0.15,11.53,100.0,-85
4591,110.773,-0.67,0.60,-0.10,-0.54,0.24,11.53,100.0,-85
4592,110.856,-0.65,0.61,-0.05,-0.59,0.15,11.53,100.0,-85
4593,110.940,-0.65,0.56,-0.05,-0.54,0.15,11.27,100.0,-85
4594,111.024,-0.66,0.61,0.00,-0.59,0.15,11.27,100.0,-85
4595,111.107,-0.69,0.59,-0.05,-0.54,0.24,11.27,100.0,-85
4596,111.191,-0.68,0.62,-0.05,-0.59,0.20,11.53,100.0,-85
4597,111.275,-0.65,0.64,-0.10,-0.59,0.24,11.53,100.0,-85
4598,111.358,-0.63,0.60,-0.10,-0.54,0.24,11.53,100.0,-85
4599,111.441,-0.63,0.58,-0.05,-0.54,0.20,11.27,100.0,-85
4600,111.525,-0.66,0.59,-0.05,-0.54,0.24,11.27,100.0,-85
4601,111.608,-0.64,0.58,-0.05,-0.54,0.20,11.27,100.0,-85
4602,111.692,-0.61,0.58,-0.05,-0.54,0.20,11.53,100.0,-88
4603,111.776,-0.65,0.59,-0.05,-0.54,0.24,11.53,100.0,-88
4604,111.859,-0.57,0.58,-0.05,-0.54,0.20,11.53,100.0,-88
4605,111.943,-0.57,0.64,-0.05,-0.59,0.24,11.27,100.0,-88
4606,112.027,-0.68,0.62,-0.05,-0.59,0.20,11.27,100.0,-88
4607,112.110,-0.69,0.58,-0.10,-0.54,0.20,11.27,100.0,-88
4608,112.194,-0.57,0.63,-0.10,-0.59,0.20,11.53,100.0,-87
4609,112.278,-0.57,0.67,-0.05,-0.64,0.20,11.53,100.0,-87
4610,112.361,-0.63,0.62,-0.05,-0.59,0.20,11.53,100.0,-87
4611,112.445,-0.63,0.53,-0.05,-0.49,0.20,11.40,100.0,-87
4612,112.529,-0.68,0.56,-0.05,-0.54,0.15,11.40,100.0,-87
4613,112.612,-0.65,0.62,-0.05,-0.59,0.20,11.40,100.0,-87
4614,112.696,-0.62,0.61,0.00,-0.59,0.15,11.66,100.0,-85
4615,112.796,-0.57,0.61,-0.05,-0.59,0.15,11.66,100.0,-85
4616,112.897,-0.57,0.58,-0.10,-0.54,0.20,11.66,100.0,-85
4617,112.997,-0.63,0.63,-0.10,-0.59,0.20,11.40,100.0,-85
4618,113.097,-0.65,0.56,-0.05,-0.54,0.15,11.40,100.0,-85
4619,113.198,-0.60,0.62,-0.05,-0.59,0.20,11.40,100.0,-85
4620,113.298,-0.65,0.62,-0.05,-0.59,0.20,11.53,100.0,-81
4621,113.382,-0.64,0.58,-0.05,-0.54,0.20,11.53,100.0,-81
4622,113.465,-0.60,0.58,-0.05,-0.54,0.20,11.53,100.0,-81
4623,113.549,-0.60,0.56,-0.05,-0.54,0.15,11.27,100.0,-81
4624,113.633,-0.63,0.59,-0.05,-0.54,0.24,11.27,100.0,-81
4625,113.716,-0.62,0.60,-0.10,-0.54,0.24,11.27,100.0,-81
4626,113.800,-0.56,0.58,-0.05,-0.54,0.20,11.53,100.0,-86
4627,113.883,-0.65,0.64,-0.05,-0.59,0.24,11.53,100.0,-86
4628,113.967,-0.61,0.58,-0.05,-0.54,0.20,11.53,100.0,-86
4629,114.050,-0.61,0.64,0.00,-0.59,0.24,11.27,100.0,-86
4630,114.134,-0.59,0.56,-0.05,-0.54,0.15,11.27,100.0,-86
4631,114.218,-0.61,0.58,-0.05,-0.54,0.20,11.27,100.0,-86
4632,114.301,-0.48,0.62,-0.05,-0.59,0.20,11.53,100.0,-80
4633,114.385,-0.56,0.56,-0.05,-0.54,0.15,11.53,100.0,-80
4634,114.469,-0.59,0.59,-0.05,-0.54,0.24,11.53,100.0,-80
4635,114.553,-0.59,0.56,-0.05,-0.54,0.15,11.41,100.0,-80
4636,114.636,-0.62,0.58,-0.05,-0.54,0.20,11.41,100.0,-80
4637,114.720,-0.56,0.58,-0.10,-0.54,0.20,11.41,100.0,-80
4638,114.804,-0.45,0.60,0.00,-0.59,0.10,11.66,100.0,-80
4639,114.904,-0.47,0.53,-0.05,-0.49,0.20,11.66,100.0,-80
4640,115.005,-0.47,0.56,-0.05,-0.54,0.15,11.66,100.0,-80
4641,115.106,-0.55,0.57,0.00,-0.54,0.20,11.40,100.0,-80
4642,115.206,-0.59,0.58,-0.10,-0.54,0.20,11.40,100.0,-80
4643,115.306,-0.59,0.63,-0.10,-0.59,0.20,11.40,100.0,-80
4644,115.407,-0.63,0.62,-0.05,-0.59,0.20,11.53,100.0,-86
4645,115.491,-0.60,0.60,-0.10,-0.54,0.24,11.53,100.0,-86
4646,115.574,-0.56,0.58,-0.10,-0.54,0.20,11.53,100.0,-86
4647,115.658,-0.56,0.61,0.00,-0.59,0.15,11.27,100.0,-86
4648,115.742,-0.54,0.62,-0.05,-0.59,0.20,11.27,100.0,-86
4649,115.825,-0.51,0.64,-0.05,-0.59,0.24,11.27,100.0,-86
4650,115.909,-0.45,0.56,-0.05,-0.54,0.15,11.53,100.0,-88
4651,115.993,-0.46,0.56,0.00,-0.54,0.15,11.53,100.0,-88
4652,116.076,-0.53,0.57,0.00,-0.54,0.20,11.53,100.0,-88
4653,116.160,-0.53,0.62,-0.05,-0.59,0.20,11.27,100.0,-88
4654,116.244,-0.61,0.53,-0.05,-0.49,0.20,11.27,100.0,-88
4655,116.327,-0.58,0.56,-0.05,-0.54,0.15,11.27,100.0,-88
4656,116.411,-0.53,0.52,-0.10,-0.49,0.15,11.53,100.0,-86
4657,116.495,-0.53,0.64,-0.05,-0.59,0.24,11.53,100.0,-86
4658,116.578,-0.60,0.58,-0.05,-0.54,0.20,11.53,100.0,-86
4659,116.662,-0.60,0.64,-0.05,-0.59,0.24,11.40,100.0,-86
4660,116.746,-0.64,0.51,-0.05,-0.49,0.15,11.40,100.0,-86
4661,116.829,-0.60,0.57,0.00,-0.54,0.20,11.40,100.0,-86
4662,116.913,-0.54,0.58,-0.10,-0.54,0.20,11.66,100.0,-86
4663,117.013,-0.53,0.53,-0.05,-0.49,0.20,11.66,100.0,-86
4664,117.114,-0.55,0.62,-0.05,-0.59,0.20,11.66,100.0,-86
4665,117.214,-0.55,0.64,-0.05,-0.59,0.24,11.40,100.0,-86
4666,117.314,-0.60,0.58,-0.05,-0.54,0.20,11.40,100.0,-86
4667,117.415,-0.56,0.58,-0.05,-0.54,0.20,11.40,100.0,-86
4668,117.515,-0.50,0.67,-0.05,-0.64,0.20,11.53,100.0,-88
4669,117.599,-0.51,0.62,-0.05,-0.59,0.20,11.53,100.0,-88
4670,117.682,-0.56,0.58,-0.05,-0.54,0.20,11.53,100.0,-88
4671,117.766,-0.56,0.58,-0.05,-0.54,0.20,11.27,100.0,-88
4672,117.850,-0.60,0.64,-0.10,-0.59,0.24,11.27,100.0,-88
4673,117.933,-0.65,0.62,0.00,-0.59,0.20,11.27,100.0,-88
4674,118.017,-0.56,0.63,-0.10,-0.59,0.20,11.53,100.0,-87
4675,118.101,-0.54,0.64,-0.10,-0.59,0.24,11.53,100.0,-87
4676,118.184,-0.55,0.53,-0.05,-0.49,0.20,11.53,100.0,-87
4677,118.268,-0.55,0.51,-0.05,-0.49,0.15,11.27,100.0,-87
4678,118.352,-0.63,0.62,-0.05,-0.59,0.20,11.27,100.0,-87
4679,118.435,-0.61,0.62,-0.05,-0.59,0.20,11.27,100.0,-87
4680,118.519,-0.51,0.68,-0.05,-0.64,0.24,11.53,100.0,-86
4681,118.603,-0.57,0.53,-0.05,-0.49,0.20,11.53,100.0,-86
4682,118.687,-0.65,0.61,0.00,-0.59,0.15,11.53,100.0,-86
4683,118.770,-0.65,0.69,-0.10,-0.64,0.24,11.27,100.0,-86
4684,118.854,-0.70,0.56,-0.05,-0.54,0.15,11.27,100.0,-86
4685,118.938,-0.61,0.58,-0.05,-0.54,0.20,11.27,100.0,-86
4686,119.022,-0.55,0.57,0.00,-0.54,0.20,11.53,100.0,-85
4687,119.106,-0.59,0.64,-0.05,-0.59,0.24,11.53,100.0,-85
4688,119.189,-0.59,0.59,-0.05,-0.54,0.24,11.53,100.0,-85
4689,119.273,-0.62,0.55,-0.05,-0.49,0.24,11.40,100.0,-85
4690,119.357,-0.64,0.64,-0.10,-0.59,0.24,11.40,100.0,-85
4691,119.440,-0.57,0.61,0.00,-0.59,0.15,11.40,100.0,-85
4692,119.524,-0.54,0.62,-0.05,-0.59,0.20,11.66,100.0,-85
4693,119.624,-0.63,0.64,-0.10,-0.59,0.24,11.66,100.0,-85
4694,119.725,-0.60,0.62,-0.05,-0.59,0.20,11.66,100.0,-85
4695,119.825,-0.60,0.54,-0.10,-0.49,0.20,11.40,100.0,-85
4696,119.925,-0.59,0.58,-0.05,-0.54,0.20,11.40,100.0,-85
4697,120.026,-0.61,0.58,-0.05,-0.54,0.20,11.40,100.0,-85
4698,120.126,-0.56,0.59,0.00,-0.54,0.24,11.53,100.0,-84
4699,120.210,-0.62,0.62,-0.05,-0.59,0.20,11.53,100.0,-84
4700,120.293,-0.62,0.64,-0.05,-0.59,0.24,11.53,100.0,-84
4701,120.377,-0.66,0.58,-0.10,-0.54,0.20,11.27,100.0,-84
4702,120.461,-0.68,0.56,-0.05,-0.54,0.15,11.27,100.0,-84
4703,120.544,-0.54,0.62,-0.05,-0.59,0.20,11.27,100.0,-84
4704,120.628,-0.56,0.61,-0.05,-0.59,0.15,11.53,100.0,-83
4705,120.712,-0.57,0.58,-0.05,-0.54,0.20,11.53,100.0,-83
4706,120.795,-0.55,0.58,-0.05,-0.54,0.20,11.53,100.0,-83
4707,120.879,-0.55,0.60,0.00,-0.59,0.10,11.27,100.0,-83
4708,120.963,-0.61,0.60,-0.10,-0.54,0.24,11.27,100.0,-83
4709,121.046,-0.59,0.59,-0.05,-0.54,0.24,11.27,100.0,-83
4710,121.130,-0.52,0.62,-0.05,-0.59,0.20,11.53,100.0,-83
4711,121.214,-0.58,0.62,-0.05,-0.59,0.20,11.53,100.0,-83
4712,121.297,-0.56,0.56,-0.05,-0.54,0.15,11.53,100.0,-83
4713,121.381,-0.56,0.64,-0.10,-0.59,0.24,11.27,100.0,-83
4714,121.465,-0.56,0.64,-0.05,-0.59,0.24,11.27,100.0,-83
4715,121.548,-0.58,0.58,-0.05,-0.54,0.20,11.27,100.0,-83
4716,121.632,-0.50,0.58,-0.05,-0.54,0.20,11.53,100.0,-80
4717,121.732,-0.53,0.58,-0.05,-0.54,0.20,11.53,100.0,-80
4718,121.833,-0.57,0.64,-0.05,-0.59,0.24,11.53,100.0,-80
4719,121.933,-0.57,0.55,-0.05,-0.49,0.24,11.40,100.0,-80
4720,122.033,-0.64,0.62,-0.05,-0.59,0.20,11.40,100.0,-80
4721,122.134,-0.56,0.59,-0.05,-0.54,0.24,11.40,100.0,-80
4722,122.234,-0.60,0.62,-0.05,-0.59,0.20,11.53,100.0,-87
4723,122.318,-0.59,0.53,-0.05,-0.49,0.20,11.53,100.0,-87
4724,122.401,-0.64,0.56,-0.05,-0.54,0.15,11.53,100.0,-87
4725,122.485,-0.64,0.58,-0.05,-0.54,0.20,11.27,100.0,-87
4726,122.569,-0.70,0.53,-0.05,-0.49,0.20,11.27,100.0,-87
4727,122.652,-0.69,0.54,-0.10,-0.49,0.20,11.27,100.0,-87
4728,122.736,-0.68,0.64,-0.05,-0.59,0.24,11.53,100.0,-82
4729,122.820,-0.64,0.58,-0.05,-0.54,0.20,11.53,100.0,-82
4730,122.903,-0.60,0.60,-0.10,-0.54,0.24,11.53,100.0,-82
4731,122.987,-0.60,0.58,-0.05,-0.54,0.20,11.27,100.0,-82
4732,123.071,-0.63,0.64,0.00,-0.59,0.24,11.27,100.0,-82
4733,123.154,-0.54,0.62,0.00,-0.59,0.20,11.27,100.0,-82
4734,123.238,-0.52,0.60,0.00,-0.59,0.10,11.52,100.0,-86
4735,123.322,-0.57,0.58,-0.05,-0.54,0.20,11.52,100.0,-86
4736,123.405,-0.57,0.59,-0.05,-0.54,0.24,11.52,100.0,-86
4737,123.489,-0.60,0.62,0.00,-0.59,0.20,11.27,100.0,-86
4738,123.573,-0.60,0.58,-0.05,-0.54,0.20,11.27,100.0,-86
4739,123.656,-0.60,0.58,-0.10,-0.54,0.20,11.27,100.0,-86
4740,123.740,-0.65,0.63,-0.10,-0.59,0.20,11.53,100.0,-84
4741,123.824,-0.65,0.56,-0.05,-0.54,0.15,11.53,100.0,-84
4742,123.908,-0.67,0.56,-0.05,-0.54,0.15,11.53,100.0,-84
4743,123.992,-0.67,0.56,-0.05,-0.54,0.15,11.40,100.0,-84
4744,124.075,-0.65,0.62,-0.05,-0.59,0.20,11.40,100.0,-84
4745,124.159,-0.63,0.58,-0.05,-0.54,0.20,11.40,100.0,-84
4746,124.243,-0.57,0.62,-0.05,-0.59,0.20,11.66,100.0,-86
4747,124.343,-0.55,0.62,-0.05,-0.59,0.20,11.66,100.0,-86
4748,124.444,-0.60,0.59,-0.05,-0.54,0.24,11.66,100.0,-86
4749,124.544,-0.60,0.58,-0.10,-0.54,0.20,11.40,100.0,-86
4750,124.644,-0.56,0.56,-0.05,-0.54,0.15,11.40,100.0,-86
4751,124.745,-0.52,0.64,-0.10,-0.59,0.24,11.40,100.0,-86
4752,124.845,-0.46,0.62,-0.05,-0.59,0.20,11.52,100.0,-85
4753,124.928,-0.53,0.56,-0.05,-0.54,0.15,11.52,100.0,-85
4754,125.012,-0.49,0.62,0.00,-0.59,0.20,11.52,100.0,-85
4755,125.096,-0.49,0.62,-0.05,-0.59,0.20,11.27,100.0,-85
4756,125.179,-0.54,0.53,-0.05,-0.49,0.20,11.27,100.0,-85
4757,125.263,-0.64,0.62,-0.05,-0.59,0.20,11.27,100.0,-85
4758,125.346,-0.55,0.62,-0.05,-0.59,0.20,11.53,100.0,-81
4759,125.430,-0.57,0.58,-0.05,-0.54,0.20,11.53,100.0,-81
4760,125.513,-0.59,0.58,-0.05,-0.54,0.20,11.53,100.0,-81
4761,125.597,-0.59,0.58,-0.05,-0.54,0.20,11.27,100.0,-81
4762,125.681,-0.68,0.58,-0.05,-0.54,0.20,11.27,100.0,-81
4763,125.764,-0.55,0.58,-0.05,-0.54,0.20,11.27,100.0,-81
4764,125.848,-0.48,0.62,-0.05,-0.59,0.20,11.53,100.0,-79
4765,125.932,-0.56,0.62,-0.05,-0.59,0.20,11.53,100.0,-79
4766,126.015,-0.52,0.51,0.00,-0.49,0.15,11.53,100.0,-79
4767,126.099,-0.52,0.56,-0.05,-0.54,0.15,11.40,100.0,-79
4768,126.183,-0.54,0.64,-0.05,-0.59,0.24,11.40,100.0,-79
4769,126.266,-0.49,0.58,-0.05,-0.54,0.20,11.40,100.0,-79
4770,126.350,-0.47,0.58,-0.05,-0.54,0.20,11.66,100.0,-80
4771,126.434,-0.52,0.60,-0.10,-0.54,0.24,11.66,100.0,-80
4772,126.517,-0.50,0.56,-0.05,-0.54,0.15,11.66,100.0,-80
4773,126.601,-0.50,0.62,-0.05,-0.59,0.20,11.40,100.0,-80
4774,126.685,-0.54,0.48,-0.05,-0.44,0.20,11.40,100.0,-80
4775,126.768,-0.55,0.56,-0.05,-0.54,0.15,11.40,100.0,-80
4776,126.852,-0.51,0.61,-0.05,-0.59,0.15,11.66,100.0,-81
4777,126.952,-0.62,0.61,-0.05,-0.59,0.15,11.66,100.0,-81
4778,127.053,-0.66,0.56,-0.05,-0.54,0.15,11.66,100.0,-81
4779,127.153,-0.66,0.61,0.00,-0.59,0.15,11.40,100.0,-81
4780,127.253,-0.72,0.57,0.00,-0.54,0.20,11.40,100.0,-81
4781,127.354,-0.68,0.59,-0.05,-0.54,0.24,11.40,100.0,-81
4782,127.454,-0.65,0.61,0.00,-0.59,0.15,11.53,100.0,-82
4783,127.538,-0.65,0.63,-0.10,-0.59,0.20,11.53,100.0,-82
4784,127.621,-0.65,0.58,-0.05,-0.54,0.20,11.53,100.0,-82
4785,127.705,-0.65,0.58,-0.05,-0.54,0.20,11.27,100.0,-82
4786,127.789,-0.64,0.58,-0.05,-0.54,0.20,11.27,100.0,-82
4787,127.872,-0.57,0.52,-0.10,-0.49,0.15,11.27,100.0,-82
4788,127.956,-0.56,0.64,-0.05,-0.59,0.24,11.53,100.0,-84
4789,128.040,-0.54,0.61,-0.10,-0.59,0.15,11.53,100.0,-84
4790,128.123,-0.56,0.58,-0.05,-0.54,0.20,11.53,100.0,-84
4791,128.207,-0.56,0.58,-0.05,-0.54,0.20,11.27,100.0,-84
4792,128.291,-0.64,0.58,-0.05,-0.54,0.20,11.27,100.0,-84
4793,128.374,-0.57,0.58,-0.10,-0.54,0.20,11.27,100.0,-84
4794,128.458,-0.52,0.62,-0.05,-0.59,0.20,11.53,100.0,-81
4795,128.542,-0.59,0.57,0.00,-0.54,0.20,11.53,100.0,-81
4796,128.626,-0.60,0.64,-0.10,-0.59,0.24,11.53,100.0,-81
4797,128.709,-0.60,0.56,-0.10,-0.49,0.24,11.40,100.0,-81
4798,128.793,-0.67,0.59,-0.05,-0.54,0.24,11.40,100.0,-81
4799,128.877,-0.60,0.58,-0.05,-0.54,0.20,11.40,100.0,-81
4800,128.961,-0.50,0.61,-0.10,-0.59,0.15,11.66,100.0,-82
4801,129.045,-0.56,0.57,0.00,-0.54,0.20,11.66,100.0,-82
4802,129.129,-0.64,0.58,-0.10,-0.54,0.20,11.66,100.0,-82
4803,129.213,-0.64,0.59,0.00,-0.54,0.24,11.40,100.0,-82
4804,129.296,-0.68,0.57,0.00,-0.54,0.20,11.40,100.0,-82
4805,129.380,-0.65,0.58,-0.05,-0.54,0.20,11.40,100.0,-82
4806,129.464,-0.62,0.58,-0.05,-0.54,0.20,11.66,100.0,-76
4807,129.564,-0.60,0.56,-0.05,-0.54,0.15,11.66,100.0,-76
4808,129.665,-0.59,0.58,-0.10,-0.54,0.20,11.66,100.0,-76
4809,129.765,-0.59,0.53,-0.05,-0.49,0.20,11.40,100.0,-76
4810,129.865,-0.64,0.58,-0.05,-0.54,0.20,11.40,100.0,-76
4811,129.966,-0.57,0.56,-0.10,-0.49,0.24,11.40,100.0,-76
4812,130.066,-0.48,0.62,-0.15,-0.59,-0.15,11.53,100.0,-79
4813,130.150,-0.57,0.69,-0.10,-0.64,-0.24,11.53,100.0,-79
4814,130.233,-0.61,1.29,-0.15,-1.22,-0.39,11.53,100.0,-79
4815,130.317,-0.61,1.15,-0.10,-0.98,-0.59,11.27,100.0,-79
4816,130.401,-0.53,0.84,-0.05,-0.49,-0.69,11.27,100.0,-79
4817,130.484,-0.59,0.96,-0.10,-0.54,-0.78,11.27,100.0,-79
4818,130.568,-0.57,1.28,0.00,-0.15,-1.27,11.53,100.0,-82
4819,130.652,-0.63,1.28,-0.05,-0.15,-1.27,11.53,100.0,-82
4820,130.735,-0.62,1.33,0.00,-0.10,-1.32,11.53,100.0,-82
4821,130.819,-0.62,1.32,0.00,-0.05,-1.32,11.40,100.0,-82
4822,130.903,-0.59,1.23,0.00,-0.10,-1.22,11.40,100.0,-82
4823,130.986,-0.61,1.28,0.00,-0.10,-1.27,11.40,100.0,-82
4824,131.070,-0.61,1.27,-0.05,0.00,-1.27,11.66,100.0,-79
4825,131.154,-0.64,1.28,-0.05,-0.10,-1.27,11.66,100.0,-79
4826,131.237,-0.64,1.28,-0.05,-0.05,-1.27,11.66,100.0,-79
4827,131.321,-0.70,1.28,-0.05,-0.10,-1.27,11.40,100.0,-79
4828,131.405,-0.65,1.32,-0.05,-0.05,-1.32,11.40,100.0,-79
4829,131.488,-0.56,1.32,-0.05,-0.05,-1.32,11.40,100.0,-79
4830,131.572,-0.59,1.38,-0.10,-0.10,-1.37,11.66,100.0,-80
4831,131.656,-0.58,1.33,-0.05,-0.10,-1.32,11.66,100.0,-80
4832,131.739,-0.62,1.28,0.00,-0.10,-1.27,11.66,100.0,-80
4833,131.823,-0.62,1.28,-0.05,-0.10,-1.27,11.40,100.0,-80
4834,131.907,-0.59,1.28,0.00,-0.10,-1.27,11.40,100.0,-80
4835,131.990,-0.56,1.28,0.00,-0.10,-1.27,11.40,100.0,-80
4836,132.074,-0.50,1.28,-0.10,-0.05,-1.27,11.66,100.0,-80
4837,132.174,-0.53,1.28,-0.05,-0.10,-1.27,11.66,100.0,-80
4838,132.275,-0.53,1.32,-0.05,-0.05,-1.32,11.66,100.0,-80
4839,132.375,-0.53,1.33,-0.05,-0.10,-1.32,11.40,100.0,-80
4840,132.475,-0.60,1.28,-0.05,-0.05,-1.27,11.40,100.0,-80
4841,132.576,-0.57,1.33,-0.05,-0.10,-1.32,11.40,100.0,-80
4842,132.676,-0.50,1.28,-0.05,-0.10,-1.27,11.53,100.0,-81
4843,132.760,-0.58,1.27,0.00,-0.05,-1.27,11.53,100.0,-81
4844,132.843,-0.57,1.28,-0.05,-0.05,-1.27,11.53,100.0,-81
4845,132.927,-0.57,1.28,-0.10,0.00,-1.27,11.27,100.0,-81
4846,133.011,-0.58,1.38,0.00,-0.10,-1.37,11.27,100.0,-81
4847,133.094,-0.52,1.32,-0.05,-0.05,-1.32,11.27,100.0,-81
4848,133.178,-0.53,1.23,-0.05,-0.05,-1.22,11.53,100.0,-83
4849,133.262,-0.56,1.33,0.00,-0.10,-1.32,11.53,100.0,-83
4850,133.346,-0.54,1.33,-0.05,-0.10,-1.32,11.53,100.0,-83
4851,133.430,-0.54,1.23,-0.05,-0.10,-1.22,11.40,100.0,-83
4852,133.513,-0.60,1.32,-0.05,-0.05,-1.32,11.40,100.0,-83
4853,133.597,-0.51,1.32,-0.05,0.00,-1.32,11.40,100.0,-83
4854,133.681,-0.50,1.32,-0.05,-0.05,-1.32,11.66,100.0,-79
4855,133.765,-0.53,1.28,0.00,-0.10,-1.27,11.66,100.0,-79
4856,133.848,-0.57,1.32,-0.05,-0.05,-1.32,11.66,100.0,-79
4857,133.932,-0.57,1.32,-0.05,-0.05,-1.32,11.40,100.0,-79
4858,134.016,-0.61,1.28,0.00,-0.10,-1.27,11.40,100.0,-79
4859,134.099,-0.60,1.37,0.00,-0.05,-1.37,11.40,100.0,-79
4860,134.183,-0.60,1.33,-0.05,-0.10,-1.32,11.66,100.0,-79
4861,134.283,-0.58,1.28,-0.05,-0.10,-1.27,11.66,100.0,-79
4862,134.384,-0.61,1.28,-0.10,-0.10,-1.27,11.66,100.0,-79
4863,134.484,-0.61,1.32,-0.05,-0.05,-1.32,11.40,100.0,-79
4864,134.584,-0.60,1.33,-0.05,-0.10,-1.32,11.40,100.0,-79
4865,134.685,-0.57,1.27,0.00,-0.05,-1.27,11.40,100.0,-79
4866,134.785,-0.48,1.32,-0.05,-0.05,-1.32,11.52,100.0,-83
4867,134.869,-0.58,1.32,-0.05,0.00,-1.32,11.52,100.0,-83
4868,134.952,-0.45,1.33,-0.05,-0.10,-1.32,11.52,100.0,-83
4869,135.036,-0.45,1.28,0.00,-0.10,-1.27,11.27,100.0,-83
4870,135.120,-0.58,1.28,-0.10,-0.05,-1.27,11.27,100.0,-83
4871,135.203,-0.52,1.32,-0.05,-0.05,-1.32,11.27,100.0,-83
4872,135.287,-0.49,1.32,0.00,-0.05,-1.32,11.52,100.0,-91
4873,135.371,-0.56,1.27,0.00,-0.05,-1.27,11.52,100.0,-91
4874,135.454,-0.56,1.28,-0.05,-0.10,-1.27,11.52,100.0,-91
4875,135.538,-0.54,1.28,0.00,-0.10,-1.27,11.27,100.0,-91
4876,135.622,-0.58,1.23,0.00,-0.10,-1.22,11.27,100.0,-91
4877,135.705,-0.58,1.28,-0.05,-0.05,-1.27,11.27,100.0,-91
4878,135.789,-0.59,1.28,0.00,-0.10,-1.27,11.52,100.0,-82
4879,135.873,-0.61,1.23,-0.05,-0.10,-1.22,11.52,100.0,-82
4880,135.956,-0.60,1.28,-0.05,-0.05,-1.27,11.52,100.0,-82
4881,136.040,-0.60,1.32,0.00,-0.05,-1.32,11.40,100.0,-82
4882,136.124,-0.61,1.33,-0.05,-0.10,-1.32,11.40,100.0,-82
4883,136.207,-0.55,1.28,-0.05,-0.10,-1.27,11.40,100.0,-82
4884,136.291,-0.50,1.33,-0.05,-0.10,-1.32,11.66,100.0,-81
4885,136.375,-0.60,1.27,0.00,-0.05,-1.27,11.66,100.0,-81
4886,136.458,-0.55,1.33,-0.05,-0.10,-1.32,11.66,100.0,-81
4887,136.542,-0.55,1.37,-0.05,-0.05,-1.37,11.40,100.0,-81
4888,136.626,-0.50,1.32,-0.05,-0.05,-1.32,11.40,100.0,-81
4889,136.709,-0.49,1.28,0.00,-0.10,-1.27,11.40,100.0,-81
4890,136.793,-0.42,1.32,-0.05,-0.05,-1.32,11.66,100.0,-83
4891,136.893,-0.52,1.28,-0.05,-0.05,-1.27,11.66,100.0,-83
4892,136.993,-0.55,1.23,-0.10,-0.10,-1.22,11.66,100.0,-83
4893,137.094,-0.55,1.23,-0.05,-0.05,-1.22,11.40,100.0,-83
4894,137.194,-0.61,1.28,-0.05,-0.05,-1.27,11.40,100.0,-83
4895,137.294,-0.59,1.28,-0.05,-0.05,-1.27,11.40,100.0,-83
4896,137.394,-0.52,1.28,-0.05,-0.10,-1.27,11.53,100.0,-76
4897,137.478,-0.63,1.28,0.00,-0.10,-1.27,11.53,100.0,-76
4898,137.561,-0.56,1.28,-0.05,-0.10,-1.27,11.53,100.0,-76
4899,137.645,-0.56,1.33,-0.10,-0.05,-1.32,11.27,100.0,-76
4900,137.729,-0.56,1.28,-0.05,-0.10,-1.27,11.27,100.0,-76
4901,137.812,-0.58,1.32,0.00,-0.05,-1.32,11.27,100.0,-76
4902,137.896,-0.53,1.33,-0.05,-0.10,-1.32,11.53,100.0,-79
4903,137.980,-0.53,1.32,0.00,-0.05,-1.32,11.53,100.0,-79
4904,138.063,-0.57,1.37,-0.05,-0.05,-1.37,11.53,100.0,-79
4905,138.147,-0.57,1.33,-0.05,-0.10,-1.32,11.27,100.0,-79
4906,138.231,-0.59,1.33,-0.05,-0.10,-1.32,11.27,100.0,-79
4907,138.314,-0.66,1.33,0.00,-0.10,-1.32,11.27,100.0,-79
4908,138.398,-0.58,1.32,-0.05,-0.05,-1.32,11.53,100.0,-76
4909,138.482,-0.62,1.33,-0.05,-0.10,-1.32,11.53,100.0,-76
4910,138.565,-0.69,1.32,-0.05,-0.05,-1.32,11.53,100.0,-76
4911,138.649,-0.69,1.28,0.00,-0.10,-1.27,11.40,100.0,-76
4912,138.733,-0.70,1.28,-0.05,-0.05,-1.27,11.40,100.0,-76
4913,138.816,-0.67,1.28,-0.05,-0.10,-1.27,11.40,100.0,-76
4914,138.900,-0.56,1.28,-0.05,-0.05,-1.27,11.66,100.0,-80
4915,139.000,-0.60,1.28,-0.10,-0.05,-1.27,11.66,100.0,-80
4916,139.100,-0.53,1.32,-0.05,-0.05,-1.32,11.66,100.0,-80
4917,139.201,-0.53,1.28,-0.05,-0.05,-1.27,11.40,100.0,-80
4918,139.301,-0.60,1.23,-0.05,-0.10,-1.22,11.40,100.0,-80
4919,139.401,-0.58,1.33,0.00,-0.10,-1.32,11.40,100.0,-80
4920,139.501,-0.57,1.32,-0.05,-0.05,-1.32,11.53,100.0,-83
4921,139.585,-0.64,1.27,-0.05,0.00,-1.27,11.53,100.0,-83
4922,139.669,-0.63,1.28,-0.05,-0.10,-1.27,11.53,100.0,-83
4923,139.752,-0.63,1.32,-0.05,-0.05,-1.32,11.27,100.0,-83
4924,139.836,-0.66,1.27,0.00,-0.05,-1.27,11.27,100.0,-83
4925,139.920,-0.60,1.32,-0.05,0.00,-1.32,11.27,100.0,-83
4926,140.004,-0.53,1.28,-0.05,-0.10,-1.27,11.53,100.0,-92
4927,140.088,-0.65,1.32,0.00,-0.05,-1.32,11.53,100.0,-92
4928,140.171,-0.58,1.28,0.00,-0.10,-1.27,11.53,100.0,-92
4929,140.255,-0.58,1.28,-0.05,-0.05,-1.27,11.27,100.0,-92
4930,140.339,-0.67,1.33,0.05,-0.10,-1.32,11.27,100.0,-92
4931,140.422,-0.65,1.28,0.00,-0.10,-1.27,11.27,100.0,-92
4932,140.506,-0.52,1.33,0.00,-0.10,-1.32,11.53,100.0,-88
4933,140.590,-0.60,1.23,-0.05,-0.05,-1.22,11.53,100.0,-88
4934,140.673,-0.60,1.37,-0.05,-0.05,-1.37,11.53,100.0,-88
4935,140.757,-0.57,1.28,-0.05,-0.05,-1.27,11.27,100.0,-88
4936,140.841,-0.63,1.32,-0.05,-0.05,-1.32,11.27,100.0,-88
4937,140.924,-0.62,1.33,-0.05,-0.10,-1.32,11.27,100.0,-88
4938,141.008,-0.54,1.33,-0.05,-0.10,-1.32,11.53,100.0,-87
4939,141.092,-0.55,1.32,-0.05,-0.05,-1.32,11.53,100.0,-87
4940,141.175,-0.53,1.32,-0.05,0.00,-1.32,11.53,100.0,-87
4941,141.259,-0.53,1.27,0.00,-0.05,-1.27,11.40,100.0,-87
4942,141.343,-0.63,1.27,0.00,-0.05,-1.27,11.40,100.0,-87
4943,141.426,-0.58,1.32,0.00,-0.05,-1.32,11.40,100.0,-87
4944,141.510,-0.49,1.32,-0.05,-0.05,-1.32,11.66,100.0,-79
4945,141.610,-0.58,1.32,-0.05,-0.05,-1.32,11.66,100.0,-79
4946,141.710,-0.61,1.33,-0.10,-0.05,-1.32,11.66,100.0,-79
4947,141.810,-0.61,1.28,-0.05,-0.05,-1.27,11.41,100.0,-79
4948,141.911,-0.63,1.32,-0.05,-0.05,-1.32,11.41,100.0,-79
4949,142.011,-0.64,1.33,-0.10,-0.05,-1.32,11.41,100.0,-79
4950,142.111,-0.68,1.33,-0.05,-0.15,-1.32,11.53,100.0,-80
4951,142.195,-0.76,1.28,-0.10,-0.05,-1.27,11.53,100.0,-80
4952,142.278,-0.67,1.27,0.00,-0.05,-1.27,11.53,100.0,-80
4953,142.362,-0.67,1.32,-0.05,-0.05,-1.32,11.27,100.0,-80
4954,142.446,-0.70,1.27,0.00,-0.05,-1.27,11.27,100.0,-80
4955,142.529,-0.65,1.28,-0.05,-0.05,-1.27,11.27,100.0,-80
4956,142.613,-0.65,1.27,0.00,-0.05,-1.27,11.53,100.0,-88
4957,142.697,-0.64,1.27,0.00,-0.05,-1.27,11.53,100.0,-88
4958,142.780,-0.65,1.33,0.00,-0.15,-1.32,11.53,100.0,-88
4959,142.864,-0.65,1.27,0.00,-0.05,-1.27,11.27,100.0,-88
4960,142.948,-0.63,1.28,-0.05,-0.05,-1.27,11.27,100.0,-88
4961,143.031,-0.58,1.28,-0.05,-0.05,-1.27,11.27,100.0,-88
4962,143.115,-0.58,1.23,-0.05,-0.05,-1.22,11.53,100.0,-85
4963,143.199,-0.56,1.32,-0.05,-0.05,-1.32,11.53,100.0,-85
4964,143.282,-0.60,1.28,0.00,-0.10,-1.27,11.53,100.0,-85
4965,143.366,-0.60,1.32,-0.05,-0.05,-1.32,11.41,100.0,-85
4966,143.450,-0.67,1.28,-0.05,-0.05,-1.27,11.41,100.0,-85
4967,143.533,-0.63,1.33,-0.10,-0.05,-1.32,11.41,100.0,-85
4968,143.617,-0.59,1.37,-0.05,-0.05,-1.37,11.66,100.0,-80
4969,143.718,-0.66,1.32,-0.05,-0.05,-1.32,11.66,100.0,-80
4970,143.818,-0.60,1.32,-0.05,-0.05,-1.32,11.66,100.0,-80
4971,143.918,-0.60,1.28,0.00,-0.10,-1.27,11.41,100.0,-80
4972,144.019,-0.66,1.32,-0.05,-0.05,-1.32,11.41,100.0,-80
4973,144.119,-0.70,1.32,-0.05,0.00,-1.32,11.41,100.0,-80
4974,144.220,-0.57,1.28,-0.05,-0.05,-1.27,11.53,100.0,-80
4975,144.304,-0.56,1.33,-0.10,-0.05,-1.32,11.53,100.0,-80
4976,144.387,-0.57,1.32,0.00,-0.05,-1.32,11.53,100.0,-80
4977,144.471,-0.57,1.23,0.00,-0.05,-1.22,11.27,100.0,-80
4978,144.555,-0.59,1.37,-0.05,-0.05,-1.37,11.27,100.0,-80
4979,144.638,-0.62,1.23,-0.05,-0.05,-1.22,11.27,100.0,-80
4980,144.722,-0.59,1.23,-0.05,-0.05,-1.22,11.53,100.0,-76
4981,144.806,-0.62,1.28,-0.05,-0.05,-1.27,11.53,100.0,-76
4982,144.889,-0.59,1.28,-0.05,-0.05,-1.27,11.53,100.0,-76
4983,144.973,-0.59,1.23,0.00,-0.05,-1.22,11.27,100.0,-76
4984,145.057,-0.64,1.28,0.00,-0.15,-1.27,11.27,100.0,-76
4985,145.140,-0.60,1.27,0.00,-0.05,-1.27,11.27,100.0,-76
4986,145.224,-0.57,1.32,-0.05,0.00,-1.32,11.53,100.0,-76
4987,145.308,-0.56,1.32,-0.05,0.00,-1.32,11.53,100.0,-76
4988,145.391,-0.56,1.33,0.00,-0.10,-1.32,11.53,100.0,-76
4989,145.475,-0.55,1.23,-0.05,-0.10,-1.22,11.27,100.0,-76
4990,145.559,-0.53,1.32,-0.05,-0.05,-1.32,11.27,100.0,-76
4991,145.642,-0.57,1.28,-0.05,-0.10,-1.27,11.27,100.0,-76
4992,145.726,-0.58,1.23,-0.05,-0.10,-1.22,11.53,100.0,-76
4993,145.810,-0.68,1.32,-0.05,-0.05,-1.32,11.53,100.0,-76
4994,145.893,-0.64,1.33,0.00,-0.10,-1.32,11.53,100.0,-76
4995,145.977,-0.64,1.33,-0.05,-0.10,-1.32,11.40,100.0,-76
4996,146.061,-0.62,1.28,-0.05,-0.05,-1.27,11.40,100.0,-76
4997,146.144,-0.58,1.28,-0.10,-0.05,-1.27,11.40,100.0,-76
4998,146.228,-0.49,1.28,-0.05,-0.05,-1.27,11.66,100.0,-77
4999,146.328,-0.50,1.32,-0.05,-0.05,-1.32,11.66,100.0,-77
5000,146.429,-0.51,1.28,0.00,-0.10,-1.27,11.66,100.0,-77
5001,146.529,-0.51,1.32,-0.05,-0.05,-1.32,11.40,100.0,-77
5002,146.629,-0.54,1.27,0.00,-0.05,-1.27,11.40,100.0,-77
5003,146.730,-0.55,1.33,-0.05,-0.10,-1.32,11.40,100.0,-77
5004,146.830,-0.58,1.38,0.00,-0.10,-1.37,11.53,100.0,-76
5005,146.914,-0.63,1.32,-0.05,-0.05,-1.32,11.53,100.0,-76
5006,146.997,-0.59,1.28,-0.05,-0.05,-1.27,11.53,100.0,-76
5007,147.081,-0.59,1.32,0.00,-0.05,-1.32,11.27,100.0,-76
5008,147.165,-0.63,1.28,-0.05,-0.10,-1.27,11.27,100.0,-76
5009,147.248,-0.63,1.23,-0.05,-0.10,-1.22,11.27,100.0,-76
5010,147.332,-0.60,1.33,0.00,-0.10,-1.32,11.53,100.0,-76
5011,147.416,-0.64,1.37,-0.05,-0.05,-1.37,11.53,100.0,-76
5012,147.499,-0.64,1.28,-0.10,-0.05,-1.27,11.53,100.0,-76
5013,147.583,-0.66,1.32,-0.05,-0.05,-1.32,11.27,100.0,-76
5014,147.667,-0.62,1.28,-0.10,-0.05,-1.27,11.27,100.0,-76
5015,147.750,-0.61,1.33,0.00,-0.10,-1.32,11.27,100.0,-76
5016,147.834,-0.60,1.32,-0.05,-0.05,-1.32,11.53,100.0,-83
5017,147.918,-0.71,1.27,0.00,-0.05,-1.27,11.53,100.0,-83
5018,148.001,-0.76,1.27,0.00,-0.05,-1.27,11.53,100.0,-83
5019,148.085,-0.76,1.37,-0.05,-0.05,-1.37,11.40,100.0,-83
5020,148.169,-0.82,1.33,0.00,-0.10,-1.32,11.40,100.0,-83
5021,148.252,-0.73,1.28,-0.05,-0.05,-1.27,11.40,100.0,-83
5022,148.336,-0.70,1.33,-0.05,-0.10,-1.32,11.66,100.0,-83
5023,148.420,-0.72,1.32,-0.05,-0.05,-1.32,11.66,100.0,-83
5024,148.504,-0.64,1.32,0.00,-0.05,-1.32,11.66,100.0,-83
5025,148.588,-0.64,1.23,-0.05,-0.10,-1.22,11.40,100.0,-83
5026,148.671,-0.71,1.28,-0.05,-0.05,-1.27,11.40,100.0,-83
5027,148.755,-0.67,1.28,-0.05,-0.10,-1.27,11.40,100.0,-83
5028,148.839,-0.62,1.28,-0.05,-0.05,-1.27,11.66,100.0,-83
5029,148.939,-0.67,1.28,-0.05,-0.05,-1.27,11.66,100.0,-83
5030,149.040,-0.69,1.32,-0.05,-0.05,-1.32,11.66,100.0,-83
5031,149.140,-0.69,1.28,0.00,-0.10,-1.27,11.40,100.0,-83
5032,149.240,-0.66,1.28,-0.05,-0.05,-1.27,11.40,100.0,-83
5033,149.341,-0.68,1.32,0.00,-0.05,-1.32,11.40,100.0,-83
5034,149.441,-0.57,1.28,-0.05,-0.05,-1.27,11.53,100.0,-83
5035,149.525,-0.64,1.23,-0.05,-0.05,-1.22,11.53,100.0,-83
5036,149.608,-0.58,1.28,-0.05,-0.05,-1.27,11.53,100.0,-83
5037,149.692,-0.58,1.27,0.00,-0.05,-1.27,11.27,100.0,-83
5038,149.776,-0.66,1.33,-0.05,-0.10,-1.32,11.27,100.0,-83
5039,149.859,-0.70,1.32,0.00,-0.05,-1.32,11.27,100.0,-83
5040,149.943,-0.63,1.27,-0.05,0.00,-1.27,11.53,100.0,-84
5041,150.027,-0.65,1.23,-0.05,-0.10,-1.22,11.53,100.0,-84
5042,150.110,-0.62,1.32,0.00,-0.05,-1.32,11.53,100.0,-84
5043,150.194,-0.62,1.32,-0.05,-0.05,-1.32,11.27,100.0,-84
5044,150.278,-0.62,1.32,-0.05,-0.05,-1.32,11.27,100.0,-84
5045,150.361,-0.58,1.32,-0.05,-0.05,-1.32,11.27,100.0,-84
5046,150.445,-0.56,1.28,0.00,-0.15,-1.27,11.53,100.0,-85
5047,150.529,-0.61,1.28,-0.05,-0.10,-1.27,11.53,100.0,-85
5048,150.612,-0.61,1.23,-0.05,-0.05,-1.22,11.53,100.0,-85
5049,150.696,-0.65,1.32,0.00,-0.05,-1.32,11.40,100.0,-85
5050,150.780,-0.61,1.28,-0.05,-0.05,-1.27,11.40,100.0,-85
5051,150.863,-0.61,1.32,-0.05,-0.05,-1.32,11.40,100.0,-85
5052,150.947,-0.67,1.33,-0.05,-0.10,-1.32,11.66,100.0,-88
5053,151.047,-0.67,1.23,-0.05,-0.10,-1.22,11.66,100.0,-88
5054,151.148,-0.57,1.28,-0.05,-0.10,-1.27,11.66,100.0,-88
5055,151.248,-0.57,1.28,-0.05,-0.05,-1.27,11.40,100.0,-88
5056,151.348,-0.57,1.23,-0.05,-0.05,-1.22,11.40,100.0,-88
5057,151.449,-0.54,1.32,-0.05,-0.05,-1.32,11.40,100.0,-88
5058,151.549,-0.47,1.28,-0.05,-0.10,-1.27,11.53,100.0,-86
5059,151.633,-0.42,1.28,-0.05,-0.05,-1.27,11.53,100.0,-86
5060,151.716,-0.42,1.28,-0.05,-0.05,-1.27,11.53,100.0,-86
5061,151.800,-0.42,1.27,0.00,-0.05,-1.27,11.27,100.0,-86
5062,151.884,-0.49,1.23,-0.05,-0.05,-1.22,11.27,100.0,-86
5063,151.967,-0.45,1.32,-0.05,-0.05,-1.32,11.27,100.0,-86
5064,152.051,-0.46,1.32,-0.05,0.00,-1.32,11.53,100.0,-86
5065,152.135,-0.54,1.28,0.00,-0.10,-1.27,11.53,100.0,-86
5066,152.218,-0.54,1.38,0.00,-0.10,-1.37,11.53,100.0,-86
5067,152.302,-0.55,1.28,-0.05,-0.05,-1.27,11.27,100.0,-86
5068,152.386,-0.60,1.28,0.00,-0.10,-1.27,11.27,100.0,-86
5069,152.469,-0.53,1.28,-0.05,-0.05,-1.27,11.27,100.0,-86
5070,152.553,-0.54,1.28,-0.05,-0.05,-1.27,11.53,100.0,-85
5071,152.637,-0.62,1.32,-0.05,-0.05,-1.32,11.53,100.0,-85
5072,152.721,-0.62,1.23,0.00,-0.05,-1.22,11.53,100.0,-85
5073,152.805,-0.62,1.28,-0.05,-0.05,-1.27,11.40,100.0,-85
5074,152.888,-0.61,1.28,-0.10,-0.05,-1.27,11.40,100.0,-85
5075,152.972,-0.54,1.32,-0.05,-0.05,-1.32,11.40,100.0,-85
5076,153.056,-0.49,1.28,0.00,-0.10,-1.27,11.66,100.0,-84
5077,153.140,-0.53,1.33,0.00,-0.10,-1.32,11.66,100.0,-84
5078,153.223,-0.53,1.23,-0.05,-0.05,-1.22,11.66,100.0,-84
5079,153.307,-0.60,1.28,0.00,-0.10,-1.27,11.40,100.0,-84
5080,153.391,-0.64,1.28,-0.05,-0.05,-1.27,11.40,100.0,-84
5081,153.474,-0.64,1.28,-0.05,-0.05,-1.27,11.40,100.0,-84
5082,153.558,-0.64,1.28,-0.10,-0.05,-1.27,11.66,100.0,-88
5083,153.658,-0.60,1.32,0.00,-0.05,-1.32,11.66,100.0,-88
5084,153.759,-0.57,1.28,-0.05,-0.05,-1.27,11.66,100.0,-88
5085,153.859,-0.57,1.28,0.00,-0.10,-1.27,11.40,100.0,-88
5086,153.959,-0.55,1.28,-0.05,-0.05,-1.27,11.40,100.0,-88
5087,154.060,-0.58,1.23,-0.05,0.00,-1.22,11.40,100.0,-88
5088,154.160,-0.52,1.27,0.00,-0.05,-1.27,11.52,100.0,-89
5089,154.243,-0.55,1.28,-0.05,-0.05,-1.27,11.52,100.0,-89
5090,154.327,-0.55,1.32,-0.05,-0.05,-1.32,11.52,100.0,-89
5091,154.410,-0.61,1.37,0.00,-0.05,-1.37,11.27,100.0,-89
5092,154.493,-0.57,1.27,0.00,-0.05,-1.27,11.27,100.0,-89
5093,154.577,-0.57,1.28,-0.05,-0.05,-1.27,11.27,100.0,-89
5094,154.660,-0.55,1.32,-0.05,-0.05,-1.32,11.53,100.0,-87
5095,154.744,-0.65,1.27,0.00,0.00,-1.27,11.53,100.0,-87
5096,154.828,-0.53,1.28,0.00,-0.10,-1.27,11.53,100.0,-87
5097,154.912,-0.53,1.32,0.00,-0.05,-1.32,11.27,100.0,-87
5098,154.997,-0.55,1.37,0.00,0.00,-1.37,11.27,100.0,-87
5099,155.081,-0.54,1.32,-0.05,-0.05,-1.32,11.27,100.0,-87
5100,155.165,-0.55,1.32,-0.05,-0.05,-1.32,11.52,100.0,-86
5101,155.248,-0.57,1.27,-0.05,0.00,-1.27,11.52,100.0,-86
5102,155.331,-0.54,1.27,0.00,-0.05,-1.27,11.52,100.0,-86
5103,155.414,-0.54,1.27,0.00,-0.05,-1.27,11.40,100.0,-86
5104,155.498,-0.59,1.32,-0.05,0.00,-1.32,11.40,100.0,-86
5105,155.581,-0.53,1.32,0.00,0.00,-1.32,11.40,100.0,-86
5106,155.664,-0.49,1.33,-0.05,-0.10,-1.32,11.66,100.0,-88
5107,155.748,-0.45,1.27,0.00,-0.05,-1.27,11.66,100.0,-88
5108,155.832,-0.45,1.32,-0.05,-0.05,-1.32,11.66,100.0,-88
5109,155.916,-0.45,1.28,-0.05,-0.05,-1.27,11.40,100.0,-88
5110,156.000,-0.45,1.27,0.00,-0.05,-1.27,11.40,100.0,-88
5111,156.084,-0.44,1.32,-0.05,-0.05,-1.32,11.40,100.0,-88
5112,156.168,-0.42,1.28,-0.05,-0.10,-1.27,11.66,100.0,-89
5113,156.268,-0.50,1.27,0.00,-0.05,-1.27,11.66,100.0,-89
5114,156.369,-0.53,1.32,-0.05,-0.05,-1.32,11.66,100.0,-89
5115,156.469,-0.53,1.28,-0.05,-0.10,-1.27,11.40,100.0,-89
5116,156.569,-0.53,1.33,-0.05,-0.10,-1.32,11.40,100.0,-89
5117,156.670,-0.55,1.27,0.00,-0.05,-1.27,11.40,100.0,-89
5118,156.770,-0.52,1.32,-0.05,-0.05,-1.32,11.53,100.0,-87
5119,156.853,-0.51,1.33,-0.05,-0.10,-1.32,11.53,100.0,-87
5120,156.937,-0.53,1.28,-0.05,-0.10,-1.27,11.53,100.0,-87
5121,157.020,-0.53,1.28,-0.05,-0.10,-1.27,11.27,100.0,-87
5122,157.104,-0.52,1.27,0.00,-0.05,-1.27,11.27,100.0,-87
5123,157.188,-0.55,1.38,-0.05,-0.10,-1.37,11.27,100.0,-87
5124,157.271,-0.48,1.32,0.00,-0.05,-1.32,11.53,100.0,-86
5125,157.355,-0.53,1.32,-0.05,-0.05,-1.32,11.53,100.0,-86
5126,157.438,-0.53,1.32,0.00,-0.05,-1.32,11.53,100.0,-86
5127,157.522,-0.55,1.28,-0.05,-0.05,-1.27,11.27,100.0,-86
5128,157.606,-0.59,1.32,0.00,0.00,-1.32,11.27,100.0,-86
5129,157.689,-0.60,1.32,0.00,-0.05,-1.32,11.27,100.0,-86
5130,157.773,-0.53,1.32,-0.05,-0.05,-1.32,11.53,100.0,-85
5131,157.857,-0.58,1.28,-0.05,-0.05,-1.27,11.53,100.0,-85
5132,157.940,-0.54,1.28,0.00,-0.10,-1.27,11.53,100.0,-85
5133,158.024,-0.54,1.32,-0.05,-0.05,-1.32,11.40,100.0,-85
5134,158.108,-0.56,1.23,-0.05,-0.10,-1.22,11.40,100.0,-85
5135,158.191,-0.59,1.28,-0.05,-0.10,-1.27,11.40,100.0,-85
5136,158.275,-0.61,1.32,-0.05,-0.05,-1.32,11.66,100.0,-82
5137,158.359,-0.64,1.23,-0.05,-0.10,-1.22,11.66,100.0,-82
5138,158.443,-0.60,1.32,0.00,-0.05,-1.32,11.66,100.0,-82
5139,158.526,-0.60,1.23,-0.05,-0.05,-1.22,11.40,100.0,-82
5140,158.610,-0.65,1.27,0.00,-0.05,-1.27,11.40,100.0,-82
5141,158.694,-0.72,1.32,0.00,-0.05,-1.32,11.40,100.0,-82
5142,158.778,-0.67,1.28,0.00,-0.10,-1.27,11.66,100.0,-82
5143,158.878,-0.58,1.32,-0.05,-0.05,-1.32,11.66,100.0,-82
5144,158.979,-0.58,1.33,-0.05,-0.10,-1.32,11.66,100.0,-82
5145,159.079,-0.66,1.32,-0.05,-0.05,-1.32,11.40,100.0,-82
5146,159.179,-0.66,1.28,-0.05,-0.05,-1.27,11.40,100.0,-82
5147,159.280,-0.52,1.33,-0.05,-0.10,-1.32,11.40,100.0,-82
5148,159.380,-0.48,1.27,0.00,-0.05,-1.27,11.53,100.0,-84
5149,159.464,-0.52,1.32,-0.05,-0.05,-1.32,11.53,100.0,-84
5150,159.547,-0.64,1.33,-0.10,-0.05,-1.32,11.53,100.0,-84
5151,159.631,-0.64,1.37,-0.05,-0.05,-1.37,11.27,100.0,-84
5152,159.715,-0.66,1.33,0.00,-0.10,-1.32,11.27,100.0,-84
5153,159.798,-0.62,1.23,0.00,-0.05,-1.22,11.27,100.0,-84
5154,159.882,-0.58,1.33,0.00,-0.10,-1.32,11.53,100.0,-84
5155,159.966,-0.61,1.28,-0.05,-0.10,-1.27,11.53,100.0,-84
5156,160.049,-0.67,1.28,-0.05,-0.05,-1.27,11.53,100.0,-84
5157,160.133,-0.67,1.33,0.00,-0.10,-1.32,11.40,100.0,-84
5158,160.217,-0.60,1.32,-0.05,-0.05,-1.32,11.40,100.0,-84
5159,160.300,-0.56,1.32,-0.05,-0.05,-1.32,11.40,100.0,-84
5160,160.384,-0.48,1.23,-0.05,-0.05,-1.22,11.66,100.0,-86
5161,160.468,-0.52,1.33,0.00,-0.10,-1.32,11.66,100.0,-86
5162,160.551,-0.58,1.28,-0.10,0.00,-1.27,11.66,100.0,-86
5163,160.635,-0.58,1.28,-0.05,-0.05,-1.27,11.40,100.0,-86
5164,160.719,-0.63,1.27,0.00,-0.05,-1.27,11.40,100.0,-86
5165,160.802,-0.69,1.28,-0.05,-0.10,-1.27,11.40,100.0,-86
5166,160.886,-0.58,1.32,0.00,-0.05,-1.32,11.66,100.0,-87
5167,160.986,-0.60,1.28,-0.05,-0.05,-1.27,11.66,100.0,-87
5168,161.087,-0.60,1.32,0.00,-0.05,-1.32,11.66,100.0,-87
5169,161.187,-0.60,1.28,-0.05,-0.05,-1.27,11.40,100.0,-87
5170,161.287,-0.60,1.32,-0.05,0.00,-1.32,11.40,100.0,-87
5171,161.388,-0.60,1.37,0.00,-0.05,-1.37,11.40,100.0,-87
5172,161.488,-0.54,1.28,-0.05,-0.10,-1.27,11.53,100.0,-86
5173,161.572,-0.53,1.32,-0.05,-0.05,-1.32,11.53,100.0,-86
5174,161.655,-0.49,1.32,-0.05,-0.05,-1.32,11.53,100.0,-86
5175,161.739,-0.49,1.33,0.00,-0.10,-1.32,11.27,100.0,-86
5176,161.823,-0.49,1.23,-0.05,-0.10,-1.22,11.27,100.0,-86
5177,161.906,-0.48,1.32,-0.05,-0.05,-1.32,11.27,100.0,-86
5178,161.990,-0.37,1.32,-0.05,-0.05,-1.32,11.53,100.0,-80
5179,162.074,-0.39,1.28,-0.05,-0.10,-1.27,11.53,100.0,-80
5180,162.157,-0.44,1.32,-0.05,-0.05,-1.32,11.53,100.0,-80
5181,162.241,-0.44,1.28,-0.05,-0.10,-1.27,11.27,100.0,-80
5182,162.325,-0.49,1.32,-0.05,-0.05,-1.32,11.27,100.0,-80
5183,162.408,-0.51,1.32,0.00,-0.05,-1.32,11.27,100.0,-80
5184,162.492,-0.47,1.28,-0.05,-0.10,-1.27,11.53,100.0,-83
5185,162.576,-0.55,1.32,-0.05,-0.05,-1.32,11.53,100.0,-83
5186,162.659,-0.50,1.28,-0.05,-0.05,-1.27,11.53,100.0,-83
5187,162.743,-0.50,1.27,0.00,-0.05,-1.27,11.40,100.0,-83
5188,162.827,-0.51,1.32,-0.05,-0.05,-1.32,11.40,100.0,-83
5189,162.910,-0.54,1.32,-0.05,0.00,-1.32,11.40,100.0,-83
5190,162.994,-0.51,1.32,-0.05,-0.05,-1.32,11.66,100.0,-77
5191,163.078,-0.51,1.32,-0.05,-0.05,-1.32,11.66,100.0,-77
5192,163.161,-0.55,1.28,-0.05,-0.05,-1.27,11.66,100.0,-77
5193,163.245,-0.55,1.32,0.00,-0.05,-1.32,11.40,100.0,-77
5194,163.329,-0.60,1.23,-0.05,-0.05,-1.22,11.40,100.0,-77
5195,163.412,-0.57,1.28,-0.05,-0.05,-1.27,11.40,100.0,-77
5196,163.496,-0.51,1.28,-0.05,-0.05,-1.27,11.66,100.0,-77
5197,163.596,-0.54,1.27,0.00,-0.05,-1.27,11.66,100.0,-77
5198,163.697,-0.54,1.27,0.00,0.00,-1.27,11.66,100.0,-77
5199,163.798,-0.54,1.37,0.00,0.00,-1.37,11.41,100.0,-77
5200,163.898,-0.58,1.32,-0.05,-0.05,-1.32,11.41,100.0,-77
5201,163.998,-0.65,1.28,-0.05,-0.05,-1.27,11.41,100.0,-77
5202,164.099,-0.57,1.28,-0.05,-0.05,-1.27,11.53,100.0,-75
5203,164.183,-0.53,1.27,0.00,-0.05,-1.27,11.53,100.0,-75
5204,164.266,-0.51,1.28,0.00,-0.10,-1.27,11.53,100.0,-75
5205,164.350,-0.51,1.28,-0.05,-0.05,-1.27,11.27,100.0,-75
5206,164.434,-0.52,1.28,0.00,-0.10,-1.27,11.27,100.0,-75
5207,164.517,-0.57,1.28,-0.05,-0.05,-1.27,11.27,100.0,-75
5208,164.601,-0.52,1.28,-0.05,-0.05,-1.27,11.52,100.0,-74
5209,164.685,-0.64,1.32,-0.05,0.00,-1.32,11.52,100.0,-74
5210,164.768,-0.67,1.28,0.00,-0.10,-1.27,11.52,100.0,-74
5211,164.852,-0.67,1.28,-0.05,-0.05,-1.27,11.27,100.0,-74
5212,164.936,-0.67,1.28,-0.05,-0.10,-1.27,11.27,100.0,-74
5213,165.019,-0.60,1.33,-0.05,-0.10,-1.32,11.27,100.0,-74
5214,165.103,-0.53,1.32,0.00,-0.05,-1.32,11.53,100.0,-74
5215,165.187,-0.62,1.37,-0.05,-0.05,-1.37,11.53,100.0,-74
5216,165.270,-0.62,1.32,-0.05,-0.05,-1.32,11.53,100.0,-74
5217,165.354,-0.59,1.27,0.00,-0.05,-1.27,11.40,100.0,-74
5218,165.438,-0.53,1.32,0.00,-0.05,-1.32,11.40,100.0,-74
5219,165.521,-0.53,1.32,-0.05,-0.05,-1.32,11.40,100.0,-74
5220,165.605,-0.59,1.28,-0.05,-0.10,-1.27,11.66,100.0,-74
5221,165.705,-0.59,1.37,-0.05,-0.05,-1.37,11.66,100.0,-74
5222,165.806,-0.65,1.28,-0.05,-0.05,-1.27,11.66,100.0,-74
5223,165.906,-0.65,1.28,-0.05,-0.05,-1.27,11.40,100.0,-74
5224,166.006,-0.73,1.28,-0.05,-0.05,-1.27,11.40,100.0,-74
5225,166.107,-0.65,1.28,-0.05,-0.05,-1.27,11.40,100.0,-74
5226,166.207,-0.54,1.32,-0.05,-0.05,-1.32,11.53,100.0,-77
5227,166.291,-0.60,1.28,-0.05,-0.05,-1.27,11.53,100.0,-77
5228,166.374,-0.58,1.33,-0.10,-0.05,-1.32,11.53,100.0,-77
5229,166.458,-0.58,1.28,-0.05,-0.10,-1.27,11.27,100.0,-77
5230,166.542,-0.62,1.37,0.00,-0.05,-1.37,11.27,100.0,-77
5231,166.625,-0.55,1.28,-0.05,-0.05,-1.27,11.27,100.0,-77
5232,166.709,-0.53,1.28,-0.05,-0.10,-1.27,11.53,100.0,-81
5233,166.793,-0.62,1.28,-0.05,-0.05,-1.27,11.53,100.0,-81
5234,166.876,-0.58,1.37,0.00,-0.05,-1.37,11.53,100.0,-81
5235,166.960,-0.58,1.28,-0.05,-0.05,-1.27,11.27,100.0,-81
5236,167.044,-0.58,1.28,-0.05,-0.05,-1.27,11.27,100.0,-81
5237,167.127,-0.55,1.28,-0.05,-0.05,-1.27,11.27,100.0,-81
5238,167.211,-0.48,1.32,-0.05,-0.05,-1.32,11.53,100.0,-77
5239,167.295,-0.49,1.32,0.00,-0.05,-1.32,11.53,100.0,-77
5240,167.378,-0.53,1.32,-0.05,-0.05,-1.32,11.53,100.0,-77
5241,167.462,-0.53,1.42,-0.05,-0.05,-1.42,11.27,100.0,-77
5242,167.546,-0.58,1.27,0.00,-0.05,-1.27,11.27,100.0,-77
5243,167.629,-0.58,1.27,0.00,-0.05,-1.27,11.27,100.0,-77
5244,167.713,-0.58,1.37,-0.05,-0.05,-1.37,11.53,100.0,-80
5245,167.797,-0.61,1.33,-0.10,0.00,-1.32,11.53,100.0,-80
5246,167.880,-0.62,1.33,0.00,-0.10,-1.32,11.53,100.0,-80
5247,167.964,-0.62,1.28,-0.05,-0.05,-1.27,11.40,100.0,-80
5248,168.048,-0.61,1.28,0.00,-0.15,-1.27,11.40,100.0,-80
5249,168.131,-0.54,1.33,-0.05,-0.10,-1.32,11.40,100.0,-80
5250,168.215,-0.51,1.37,0.00,0.00,-1.37,11.66,100.0,-80
5251,168.315,-0.53,1.32,0.00,0.00,-1.32,11.66,100.0,-80
5252,168.416,-0.53,1.32,-0.05,0.00,-1.32,11.66,100.0,-80
5253,168.516,-0.59,1.32,0.00,0.00,-1.32,11.40,100.0,-80
5254,168.616,-0.59,1.37,-0.05,0.00,-1.37,11.40,100.0,-80
5255,168.717,-0.59,1.32,-0.05,0.05,-1.32,11.40,100.0,-80
5256,168.817,-0.56,1.32,0.00,0.00,-1.32,11.53,100.0,-80
5257,168.901,-0.61,1.37,-0.05,0.00,-1.37,11.53,100.0,-80
5258,168.984,-0.61,1.32,-0.05,-0.05,-1.32,11.53,100.0,-80
5259,169.068,-0.71,1.37,-0.05,0.00,-1.37,11.27,100.0,-80
5260,169.152,-0.65,1.32,0.00,0.00,-1.32,11.27,100.0,-80
5261,169.235,-0.65,1.37,0.00,0.00,-1.37,11.27,100.0,-80
5262,169.319,-0.53,1.32,-0.05,0.00,-1.32,11.53,100.0,-80
5263,169.403,-0.57,1.32,-0.05,0.00,-1.32,11.53,100.0,-80
5264,169.486,-0.57,1.32,-0.05,0.05,-1.32,11.53,100.0,-80
5265,169.570,-0.67,1.37,0.00,0.00,-1.37,11.27,100.0,-80
5266,169.654,-0.62,1.32,0.00,0.00,-1.32,11.27,100.0,-80
5267,169.737,-0.62,1.32,0.00,0.00,-1.32,11.27,100.0,-80
5268,169.821,-0.48,1.37,0.00,0.00,-1.37,11.53,100.0,-83
5269,169.905,-0.46,1.32,-0.05,0.05,-1.32,11.53,100.0,-83
5270,169.988,-0.46,1.28,-0.05,0.05,-1.27,11.53,100.0,-83
5271,170.072,-0.51,1.27,-0.05,0.00,-1.27,11.40,100.0,-83
5272,170.156,-0.54,1.37,-0.05,0.00,-1.37,11.40,100.0,-83
5273,170.239,-0.54,1.32,0.00,0.05,-1.32,11.40,100.0,-83
5274,170.323,-0.47,1.28,-0.10,0.00,-1.27,11.66,100.0,-85
5275,170.407,-0.57,1.33,-0.10,0.05,-1.32,11.66,100.0,-85
5276,170.491,-0.57,1.32,-0.05,0.05,-1.32,11.66,100.0,-85
5277,170.575,-0.57,1.32,-0.05,0.05,-1.32,11.40,100.0,-85
5278,170.658,-0.61,1.37,0.00,-0.05,-1.37,11.40,100.0,-85
5279,170.742,-0.63,1.37,0.00,0.00,-1.37,11.40,100.0,-85
5280,170.826,-0.62,1.32,0.00,0.00,-1.32,11.66,100.0,-77
5281,170.926,-0.61,1.28,-0.05,-0.05,-1.27,11.66,100.0,-77
5282,171.027,-0.61,1.37,-0.05,0.05,-1.37,11.66,100.0,-77
5283,171.127,-0.62,1.32,0.00,0.00,-1.32,11.40,100.0,-77
5284,171.227,-0.65,1.27,0.00,0.00,-1.27,11.40,100.0,-77
5285,171.328,-0.65,1.28,-0.05,0.05,-1.27,11.40,100.0,-77
5286,171.428,-0.59,1.37,-0.05,0.00,-1.37,11.53,100.0,-79
5287,171.512,-0.63,1.28,-0.05,0.05,-1.27,11.53,100.0,-79
5288,171.595,-0.54,1.27,-0.05,0.00,-1.27,11.53,100.0,-79
5289,171.678,-0.54,1.32,0.00,0.00,-1.32,11.27,100.0,-79
5290,171.762,-0.64,1.32,-0.05,0.00,-1.32,11.27,100.0,-79
5291,171.846,-0.62,1.27,-0.05,0.00,-1.27,11.27,100.0,-79
5292,171.929,-0.59,1.37,-0.05,0.05,-1.37,11.53,100.0,-77
5293,172.013,-0.62,1.32,0.00,0.05,-1.32,11.53,100.0,-77
5294,172.096,-0.59,1.37,0.00,0.00,-1.37,11.53,100.0,-77
5295,172.180,-0.59,1.37,0.00,0.05,-1.37,11.27,100.0,-77
5296,172.264,-0.60,1.32,0.00,0.05,-1.32,11.27,100.0,-77
5297,172.347,-0.59,1.32,0.00,0.05,-1.32,11.27,100.0,-77
5298,172.431,-0.62,1.32,0.00,0.00,-1.32,11.53,100.0,-82
5299,172.515,-0.59,1.28,-0.10,0.05,-1.27,11.53,100.0,-82
5300,172.598,-0.59,1.32,-0.05,0.05,-1.32,11.53,100.0,-82
5301,172.682,-0.65,1.27,0.00,0.05,-1.27,11.40,100.0,-82
5302,172.766,-0.60,1.32,-0.05,0.05,-1.32,11.40,100.0,-82
5303,172.849,-0.55,1.32,0.00,0.00,-1.32,11.40,100.0,-82
5304,172.933,-0.57,1.37,-0.05,0.05,-1.37,11.66,100.0,-95
5305,173.017,-0.56,1.32,0.00,0.00,-1.32,11.66,100.0,-95
5306,173.100,-0.60,1.32,-0.05,0.05,-1.32,11.66,100.0,-95
5307,173.184,-0.60,1.37,0.00,0.05,-1.37,11.40,100.0,-95
5308,173.268,-0.65,1.37,-0.05,0.05,-1.37,11.40,100.0,-95
5309,173.351,-0.60,1.42,0.00,0.00,-1.42,11.40,100.0,-95
5310,173.435,-0.52,1.32,0.00,0.05,-1.32,11.66,100.0,-85
5311,173.535,-0.55,1.32,0.00,0.05,-1.32,11.66,100.0,-85
5312,173.636,-0.55,1.28,-0.05,0.05,-1.27,11.66,100.0,-85
5313,173.736,-0.53,1.32,0.00,0.05,-1.32,11.40,100.0,-85
5314,173.836,-0.60,1.32,-0.05,0.00,-1.32,11.40,100.0,-85
5315,173.937,-0.52,1.37,-0.05,0.05,-1.37,11.40,100.0,-85
5316,174.037,-0.52,1.27,-0.05,0.00,-1.27,11.53,100.0,-83
5317,174.121,-0.52,1.37,-0.05,0.05,-1.37,11.53,100.0,-83
5318,174.204,-0.52,1.32,0.00,0.05,-1.32,11.53,100.0,-83
5319,174.288,-0.60,1.28,-0.05,0.05,-1.27,11.27,100.0,-83
5320,174.372,-0.65,1.37,-0.05,0.00,-1.37,11.27,100.0,-83
5321,174.455,-0.62,1.32,0.00,0.00,-1.32,11.27,100.0,-83
5322,174.539,-0.66,1.32,0.00,0.05,-1.32,11.53,100.0,-79
5323,174.623,-0.68,1.37,-0.05,0.05,-1.37,11.53,100.0,-79
5324,174.706,-0.68,1.32,-0.05,0.00,-1.32,11.53,100.0,-79
5325,174.790,-0.68,1.37,0.00,0.05,-1.37,11.40,100.0,-79
5326,174.874,-0.68,1.37,-0.05,0.05,-1.37,11.40,100.0,-79
5327,174.957,-0.63,1.37,0.00,0.00,-1.37,11.40,100.0,-79
5328,175.041,-0.57,1.37,0.00,0.00,-1.37,11.66,100.0,-79
5329,175.125,-0.58,1.32,-0.05,0.00,-1.32,11.66,100.0,-79
5330,175.208,-0.58,1.37,-0.05,0.05,-1.37,11.66,100.0,-79
5331,175.292,-0.61,1.32,0.00,0.00,-1.32,11.40,100.0,-79
5332,175.376,-0.59,1.32,-0.05,0.00,-1.32,11.40,100.0,-79
5333,175.459,-0.59,1.32,0.00,0.00,-1.32,11.40,100.0,-79
5334,175.543,-0.58,1.37,-0.05,0.05,-1.37,11.66,100.0,-82
5335,175.627,-0.55,1.37,0.00,0.00,-1.37,11.66,100.0,-82
5336,175.710,-0.58,1.32,0.00,0.05,-1.32,11.66,100.0,-82
5337,175.794,-0.58,1.42,-0.05,0.00,-1.42,11.40,100.0,-82
5338,175.878,-0.54,1.27,0.00,0.00,-1.27,11.40,100.0,-82
5339,175.961,-0.52,1.32,0.00,0.05,-1.32,11.40,100.0,-82
5340,176.045,-0.44,1.37,-0.05,0.00,-1.37,11.66,100.0,-83
5341,176.146,-0.49,1.27,0.00,0.05,-1.27,11.66,100.0,-83
5342,176.247,-0.49,1.32,0.00,0.00,-1.32,11.66,100.0,-83
5343,176.347,-0.59,1.37,-0.05,0.05,-1.37,11.40,100.0,-83
5344,176.448,-0.62,1.32,0.00,0.00,-1.32,11.40,100.0,-83
5345,176.549,-0.57,1.32,-0.05,0.05,-1.32,11.40,100.0,-83
5346,176.650,-0.52,1.32,0.00,0.00,-1.32,11.52,100.0,-76
5347,176.733,-0.51,1.37,-0.05,0.05,-1.37,11.52,100.0,-76
5348,176.817,-0.51,1.32,0.00,0.05,-1.32,11.52,100.0,-76
5349,176.900,-0.57,1.27,0.00,0.05,-1.27,11.27,100.0,-76
5350,176.983,-0.57,1.37,-0.05,0.05,-1.37,11.27,100.0,-76
5351,177.067,-0.57,1.28,-0.05,0.05,-1.27,11.27,100.0,-76
5352,177.150,-0.52,1.32,0.00,0.00,-1.32,11.53,100.0,-77
5353,177.234,-0.54,1.37,0.00,0.05,-1.37,11.53,100.0,-77
5354,177.318,-0.54,1.37,0.00,0.05,-1.37,11.53,100.0,-77
5355,177.401,-0.54,1.32,-0.05,0.05,-1.32,11.40,100.0,-77
5356,177.485,-0.52,1.27,0.00,0.05,-1.27,11.40,100.0,-77
5357,177.569,-0.54,1.37,-0.05,0.05,-1.37,11.40,100.0,-77
5358,177.653,-0.55,1.32,0.00,0.05,-1.32,11.66,100.0,-81
5359,177.736,-0.52,1.27,-0.05,0.00,-1.27,11.66,100.0,-81
5360,177.820,-0.52,1.32,0.00,0.00,-1.32,11.66,100.0,-81
5361,177.903,-0.52,1.33,-0.05,0.10,-1.32,11.40,100.0,-81
5362,177.986,-0.53,1.28,-0.05,0.05,-1.27,11.40,100.0,-81
5363,178.070,-0.54,1.32,0.00,0.00,-1.32,11.40,100.0,-81
5364,178.153,-0.49,1.32,-0.05,0.05,-1.32,11.66,100.0,-77
5365,178.237,-0.51,1.32,-0.05,0.05,-1.32,11.66,100.0,-77
5366,178.320,-0.52,1.32,-0.05,0.05,-1.32,11.66,100.0,-77
5367,178.404,-0.52,1.32,0.00,0.05,-1.32,11.41,100.0,-77
5368,178.488,-0.60,1.28,-0.05,0.05,-1.27,11.41,100.0,-77
5369,178.571,-0.55,1.32,-0.05,0.05,-1.32,11.41,100.0,-77
5370,178.655,-0.48,1.27,0.00,0.00,-1.27,11.66,100.0,-77
5371,178.755,-0.49,1.28,-0.05,0.05,-1.27,11.66,100.0,-77
5372,178.856,-0.49,1.32,-0.05,0.05,-1.32,11.66,100.0,-77
5373,178.956,-0.47,1.37,0.00,0.05,-1.37,11.40,100.0,-77
5374,179.056,-0.50,1.32,-0.05,0.05,-1.32,11.40,100.0,-77
5375,179.157,-0.50,1.32,0.00,0.05,-1.32,11.40,100.0,-77
5376,179.257,-0.45,1.32,0.00,0.05,-1.32,11.53,100.0,-77
5377,179.341,-0.47,1.32,-0.05,0.05,-1.32,11.53,100.0,-77
5378,179.424,-0.47,1.32,0.00,0.05,-1.32,11.53,100.0,-77
5379,179.508,-0.44,1.32,-0.05,0.05,-1.32,11.27,100.0,-77
5380,179.592,-0.43,1.37,-0.05,0.05,-1.37,11.27,100.0,-77
5381,179.675,-0.42,1.32,0.00,0.05,-1.32,11.27,100.0,-77
5382,179.759,-0.44,1.37,-0.05,0.00,-1.37,11.53,100.0,-76
5383,179.843,-0.50,1.37,0.00,0.05,-1.37,11.53,100.0,-76
5384,179.926,-0.50,1.32,0.00,0.05,-1.32,11.53,100.0,-76
5385,180.010,-0.51,1.32,0.00,0.00,-1.32,11.41,100.0,-76
5386,180.094,-0.53,1.32,0.00,0.05,-1.32,11.41,100.0,-76
5387,180.177,-0.53,1.32,-0.05,0.05,-1.32,11.41,100.0,-76
5388,180.261,-0.51,1.32,-0.05,0.05,-1.32,11.66,100.0,-79
5389,180.345,-0.57,1.32,-0.05,0.05,-1.32,11.66,100.0,-79
5390,180.428,-0.60,1.27,0.00,0.05,-1.27,11.66,100.0,-79
5391,180.512,-0.60,1.27,0.00,0.05,-1.27,11.40,100.0,-79
5392,180.596,-0.59,1.23,-0.05,0.05,-1.22,11.40,100.0,-79
5393,180.679,-0.58,1.38,0.00,0.10,-1.37,11.40,100.0,-79
5394,180.763,-0.53,1.37,0.00,0.00,-1.37,11.66,100.0,-83
5395,180.847,-0.56,1.32,-0.05,0.05,-1.32,11.66,100.0,-83
5396,180.931,-0.56,1.37,-0.05,0.00,-1.37,11.66,100.0,-83
5397,181.014,-0.58,1.37,0.00,0.05,-1.37,11.40,100.0,-83
5398,181.098,-0.57,1.37,0.00,0.00,-1.37,11.40,100.0,-83
5399,181.182,-0.57,1.32,-0.05,0.05,-1.32,11.40,100.0,-83
5400,181.266,-0.59,1.32,0.00,0.00,-1.32,11.66,100.0,-89
5401,181.350,-0.51,1.37,0.00,0.00,-1.37,11.66,100.0,-89
5402,181.433,-0.51,1.32,0.00,0.05,-1.32,11.66,100.0,-89
5403,181.517,-0.58,1.37,0.00,0.00,-1.37,11.40,100.0,-89
5404,181.601,-0.60,1.32,-0.05,0.05,-1.32,11.40,100.0,-89
5405,181.684,-0.60,1.38,-0.05,0.10,-1.37,11.40,100.0,-89
5406,181.768,-0.52,1.37,-0.05,0.05,-1.37,11.66,100.0,-84
5407,181.868,-0.54,1.28,-0.05,0.05,-1.27,11.66,100.0,-84
5408,181.969,-0.51,1.37,0.00,0.05,-1.37,11.66,100.0,-84
5409,182.069,-0.51,1.28,-0.05,0.05,-1.27,11.40,100.0,-84
5410,182.169,-0.60,1.37,0.00,0.05,-1.37,11.40,100.0,-84
5411,182.270,-0.59,1.32,-0.05,0.05,-1.32,11.40,100.0,-84
5412,182.370,-0.60,1.32,0.00,0.05,-1.32,11.53,100.0,-81
5413,182.454,-0.66,1.37,-0.05,0.05,-1.37,11.53,100.0,-81
5414,182.537,-0.66,1.32,-0.05,0.05,-1.32,11.53,100.0,-81
5415,182.621,-0.61,1.32,-0.05,0.00,-1.32,11.40,100.0,-81
5416,182.705,-0.66,1.28,-0.05,0.05,-1.27,11.40,100.0,-81
5417,182.788,-0.57,1.32,-0.05,0.00,-1.32,11.40,100.0,-81
5418,182.872,-0.58,1.37,0.00,0.00,-1.37,11.66,100.0,-85
5419,182.956,-0.61,1.32,-0.05,0.05,-1.32,11.66,100.0,-85
5420,183.039,-0.61,1.42,0.00,0.05,-1.42,11.66,100.0,-85
5421,183.123,-0.56,1.32,0.00,0.05,-1.32,11.40,100.0,-85
5422,183.207,-0.54,1.42,0.00,0.05,-1.42,11.40,100.0,-85
5423,183.290,-0.54,1.32,0.00,0.00,-1.32,11.40,100.0,-85
5424,183.374,-0.52,1.33,-0.05,0.10,-1.32,11.66,100.0,-81
5425,183.458,-0.54,1.33,0.00,0.10,-1.32,11.66,100.0,-81
5426,183.541,-0.49,1.27,0.00,0.05,-1.27,11.66,100.0,-81
5427,183.625,-0.49,1.32,0.00,0.00,-1.32,11.40,100.0,-81
5428,183.709,-0.48,1.32,0.00,0.05,-1.32,11.40,100.0,-81
5429,183.792,-0.47,1.32,-0.05,0.00,-1.32,11.40,100.0,-81
5430,183.876,-0.44,1.32,-0.05,0.05,-1.32,11.66,100.0,-76
5431,183.960,-0.43,1.37,-0.05,0.05,-1.37,11.66,100.0,-76
5432,184.043,-0.42,1.32,0.00,0.00,-1.32,11.66,100.0,-76
5433,184.127,-0.42,1.28,-0.05,0.05,-1.27,11.40,100.0,-76
5434,184.211,-0.40,1.38,-0.05,0.10,-1.37,11.40,100.0,-76
5435,184.294,-0.49,1.37,0.00,0.00,-1.37,11.40,100.0,-76
5436,184.378,-0.44,1.32,0.00,0.00,-1.32,11.66,100.0,-77
5437,184.478,-0.45,1.27,0.00,0.00,-1.27,11.66,100.0,-77
5438,184.579,-0.45,1.38,0.00,0.10,-1.37,11.66,100.0,-77
5439,184.679,-0.54,1.32,0.00,0.05,-1.32,11.40,100.0,-77
5440,184.780,-0.52,1.42,-0.05,0.05,-1.42,11.40,100.0,-77
5441,184.880,-0.52,1.37,-0.05,0.05,-1.37,11.40,100.0,-77
5442,184.981,-0.50,1.32,-0.05,0.05,-1.32,11.53,100.0,-76
5443,185.065,-0.50,1.32,0.00,0.05,-1.32,11.53,100.0,-76
5444,185.148,-0.45,1.37,0.00,0.05,-1.37,11.53,100.0,-76
5445,185.232,-0.45,1.32,0.00,0.05,-1.32,11.41,100.0,-76
5446,185.316,-0.48,1.37,0.00,0.05,-1.37,11.41,100.0,-76
5447,185.399,-0.54,1.32,0.00,0.05,-1.32,11.41,100.0,-76
5448,185.483,-0.52,1.37,0.00,0.05,-1.37,11.66,100.0,-77
5449,185.567,-0.50,1.38,0.00,0.10,-1.37,11.66,100.0,-77
5450,185.650,-0.50,1.37,-0.05,0.05,-1.37,11.66,100.0,-77
5451,185.734,-0.52,1.27,0.00,0.05,-1.27,11.40,100.0,-77
5452,185.818,-0.55,1.38,0.00,0.10,-1.37,11.40,100.0,-77
5453,185.901,-0.55,1.27,0.00,0.05,-1.27,11.40,100.0,-77
5454,185.985,-0.48,1.27,0.00,0.00,-1.27,11.66,100.0,-77
5455,186.069,-0.50,1.32,0.00,0.05,-1.32,11.66,100.0,-77
5456,186.152,-0.50,1.37,0.00,0.05,-1.37,11.66,100.0,-77
5457,186.236,-0.44,1.32,0.00,0.05,-1.32,11.41,100.0,-77
5458,186.320,-0.54,1.32,0.00,0.05,-1.32,11.41,100.0,-77
5459,186.403,-0.54,1.32,0.00,0.05,-1.32,11.41,100.0,-77
5460,186.487,-0.57,1.37,-0.05,0.05,-1.37,11.66,100.0,-77
5461,186.571,-0.57,1.42,0.00,0.05,-1.42,11.66,100.0,-77
5462,186.654,-0.60,1.38,0.00,0.10,-1.37,11.66,100.0,-77
5463,186.738,-0.60,1.28,-0.05,0.05,-1.27,11.40,100.0,-77
5464,186.822,-0.58,1.32,0.00,0.05,-1.32,11.40,100.0,-77
5465,186.905,-0.50,1.37,0.00,0.05,-1.37,11.40,100.0,-77
5466,186.989,-0.45,1.32,0.00,0.05,-1.32,11.66,100.0,-77
5467,187.089,-0.48,1.37,0.00,0.05,-1.37,11.66,100.0,-77
5468,187.190,-0.48,1.32,-0.05,0.05,-1.32,11.66,100.0,-77
5469,187.290,-0.50,1.32,0.00,0.05,-1.32,11.40,100.0,-77
5470,187.390,-0.56,1.33,-0.10,0.05,-1.32,11.40,100.0,-77
5471,187.491,-0.58,1.32,-0.05,0.05,-1.32,11.40,100.0,-77
5472,187.591,-0.55,1.37,0.00,0.05,-1.37,11.53,100.0,-77
5473,187.675,-0.53,1.37,0.00,0.05,-1.37,11.53,100.0,-77
5474,187.759,-0.53,1.32,-0.05,0.05,-1.32,11.53,100.0,-77
5475,187.843,-0.60,1.32,0.00,0.05,-1.32,11.40,100.0,-77
5476,187.926,-0.59,1.37,0.00,0.05,-1.37,11.40,100.0,-77
5477,188.010,-0.59,1.37,-0.05,0.05,-1.37,11.40,100.0,-77
5478,188.094,-0.56,1.32,-0.05,0.05,-1.32,11.66,100.0,-76
5479,188.178,-0.55,1.37,0.00,0.05,-1.37,11.66,100.0,-76
5480,188.261,-0.52,1.32,-0.05,0.05,-1.32,11.66,100.0,-76
5481,188.345,-0.52,1.32,0.00,0.05,-1.32,11.40,100.0,-76
5482,188.429,-0.51,1.33,-0.05,0.10,-1.32,11.40,100.0,-76
5483,188.512,-0.48,1.32,0.00,0.05,-1.32,11.40,100.0,-76
