sid,time,altitude,acceleration,acceleration-X,acceleration-Y,acceleration-Z,SPS,Reliability,RSSI
3531,120.004,0.72,1.00,-0.98,0.20,-0.10,11.47,99.8,-96
3534,120.255,0.65,1.04,-1.03,0.15,-0.05,11.39,99.8,-96
3535,120.339,0.61,0.99,-0.98,0.15,-0.05,11.39,99.8,-96
3536,120.422,0.61,1.05,-1.03,0.15,-0.15,11.39,99.8,-96
3537,120.506,0.61,1.04,-1.03,0.15,-0.10,11.39,99.8,-96
3538,120.589,0.63,1.04,-1.03,0.15,-0.10,11.08,99.8,-96
3540,120.757,0.65,1.05,-1.03,0.20,-0.10,11.50,99.8,-95
3541,120.840,0.67,1.04,-1.03,0.15,-0.10,11.51,99.8,-95
3542,120.924,0.65,0.99,-0.98,0.10,-0.05,11.53,99.8,-95
3543,121.008,0.65,1.05,-1.03,0.20,-0.05,11.23,99.8,-95
3546,121.275,0.72,1.03,-1.03,0.10,-0.05,11.55,99.8,-95
3547,121.375,0.73,1.04,-1.03,0.15,-0.10,11.53,99.8,-95
3548,121.476,0.70,1.05,-1.03,0.20,-0.05,11.51,99.8,-95
3549,121.576,0.70,1.05,-1.03,0.20,0.00,11.17,99.8,-95
3552,121.860,0.71,1.14,-0.98,-0.20,-0.54,11.47,99.8,-79
3553,121.944,0.65,1.12,-1.08,0.24,-0.20,11.47,99.8,-79
3554,122.027,0.62,1.02,-0.98,0.29,-0.05,11.47,99.8,-79
3555,122.111,0.62,1.12,-1.08,0.10,-0.29,11.47,99.8,-79
3558,122.362,1.21,2.85,-2.84,0.15,0.00,11.39,99.9,-90
3559,122.446,3.87,2.80,-2.79,0.15,-0.10,11.39,99.9,-90
3560,122.529,5.95,2.80,-2.79,0.10,0.05,11.39,99.9,-90
3561,122.613,5.95,2.85,-2.84,0.15,-0.05,11.39,99.9,-90
3562,122.696,7.65,2.70,-2.70,0.05,-0.05,11.08,99.9,-90
3564,122.864,10.51,2.41,-2.40,0.20,-0.05,11.50,99.9,-102
3565,122.947,14.22,2.41,-2.40,0.15,0.00,11.51,99.9,-102
3566,123.031,17.15,2.41,-2.40,0.15,0.00,11.53,99.9,-102
3567,123.114,17.15,2.36,-2.35,0.10,0.10,11.23,99.9,-102
3570,123.382,23.30,2.12,-2.11,0.20,0.00,11.54,99.9,-106
3571,123.482,27.70,2.16,-2.16,0.15,-0.05,11.53,99.9,-106
3572,123.582,31.23,2.11,-2.11,0.05,-0.05,11.51,99.9,-106
3573,123.682,31.23,2.01,-2.01,0.00,0.00,11.17,99.9,-106
3576,123.966,38.53,0.51,0.34,0.15,-0.34,11.47,99.9,-103
3577,124.049,42.46,0.66,0.34,0.15,-0.54,11.47,99.9,-103
3578,124.133,44.92,0.65,0.34,0.10,-0.54,11.47,99.9,-103
3579,124.217,44.92,0.53,0.39,0.20,-0.29,11.47,99.9,-103
3582,124.468,49.25,0.29,0.20,0.10,-0.20,11.39,99.9,-100
3583,124.551,52.08,0.38,0.24,0.15,-0.24,11.39,99.9,-100
3584,124.635,54.38,0.36,0.20,0.05,-0.29,11.39,99.9,-100
3585,124.719,54.38,0.39,0.24,0.10,-0.29,11.15,99.9,-100
3586,124.802,56.14,0.39,0.24,0.05,-0.29,11.17,99.9,-100
3588,124.969,59.04,0.25,0.15,0.15,-0.15,11.59,99.9,-113
3589,125.053,61.65,0.18,0.15,0.10,-0.05,11.38,99.9,-113
3590,125.137,63.65,0.26,0.10,0.20,-0.15,11.38,99.9,-113
3591,125.220,63.65,0.33,0.20,0.10,-0.24,11.38,99.9,-113
3594,125.488,67.67,0.27,0.05,0.10,-0.24,11.70,99.9,-108
3595,125.588,69.80,0.27,0.05,0.10,-0.24,11.69,99.9,-108
3596,125.688,71.48,0.22,0.05,0.10,-0.20,11.26,99.9,-108
3597,125.789,71.48,0.26,0.10,0.15,-0.20,11.25,99.9,-108
3600,126.073,74.73,0.35,0.05,0.24,-0.24,11.55,99.9,-101
3601,126.156,76.01,0.24,0.00,0.20,-0.15,11.55,99.9,-101
3602,126.240,77.12,0.29,0.05,0.24,-0.15,11.22,99.9,-101
3603,126.324,77.12,0.25,0.05,0.20,-0.15,11.22,99.9,-101
3606,126.574,79.26,0.21,0.05,0.15,-0.15,11.55,99.9,-99
3607,126.658,79.95,0.31,0.00,0.24,-0.20,11.55,99.9,-99
3608,126.742,80.50,0.21,0.00,0.15,-0.15,11.23,99.9,-99
3609,126.825,80.50,0.25,0.05,0.15,-0.20,11.25,99.9,-99
3612,127.076,81.43,0.23,0.10,0.15,-0.15,11.59,99.9,-98
3613,127.160,81.52,0.28,0.05,0.20,-0.20,11.61,99.9,-98
3614,127.243,81.57,0.29,0.00,0.15,-0.24,11.31,99.9,-98
3615,127.327,81.57,0.25,0.05,0.15,-0.20,11.31,99.9,-98
3616,127.411,81.58,0.28,0.05,0.20,-0.20,11.31,99.9,-98
3618,127.578,81.57,0.36,-0.10,0.05,-0.34,11.72,99.9,-102
3619,127.662,47.59,13.11,-12.40,-4.26,-0.05,11.38,99.9,-102
3620,127.745,40.75,0.68,0.15,0.39,-0.54,11.38,99.9,-102
3621,127.829,40.75,0.56,0.10,0.24,-0.49,11.38,99.9,-102
3624,128.096,59.56,5.05,0.05,-0.74,-5.00,11.70,99.9,-100
3625,128.197,62.87,4.43,-0.44,0.00,-4.41,11.35,99.9,-100
3626,128.297,65.38,1.76,-0.34,-1.42,-0.98,11.34,99.9,-100
3627,128.397,65.38,2.66,0.39,-2.60,-0.39,11.32,99.9,-100
3630,128.681,69.51,2.22,0.93,-0.78,-1.86,11.62,99.9,-108
3631,128.765,69.76,2.10,0.93,-0.88,-1.67,11.62,99.9,-108
3632,128.849,69.87,1.82,0.78,-0.83,-1.42,11.22,99.9,-108
3633,128.932,69.87,1.41,0.59,-0.69,-1.08,11.22,99.9,-108
3636,129.183,70.28,1.20,0.83,-0.44,-0.74,11.55,99.9,-100
3637,129.267,69.95,1.17,0.98,-0.10,-0.64,11.55,99.9,-100
3638,129.350,69.63,0.99,0.69,0.39,-0.59,11.23,99.9,-100
3639,129.434,69.63,1.17,0.74,0.74,-0.54,11.25,99.9,-100
3640,129.518,69.46,1.43,0.83,1.08,-0.44,11.26,99.9,-100
3642,129.685,69.27,1.19,0.88,0.29,0.74,11.69,99.9,-103
3643,129.768,68.82,1.17,0.88,0.24,0.74,11.39,99.9,-103
3644,129.852,68.49,1.00,0.88,0.15,0.44,11.39,99.9,-103
3645,129.936,68.49,0.87,0.83,0.10,0.24,11.39,99.9,-103
3648,130.203,67.88,1.11,1.08,-0.20,-0.20,11.70,99.9,-109
3649,130.303,67.38,1.24,1.13,-0.34,-0.39,11.35,99.9,-109
3650,130.404,67.01,1.18,1.08,-0.29,-0.39,11.34,99.9,-109
3651,130.504,67.01,1.11,0.98,-0.15,-0.49,11.32,99.9,-109
3652,130.604,66.68,1.17,0.98,-0.24,-0.59,11.31,99.9,-109
3653,130.705,66.38,1.28,1.08,-0.24,-0.64,11.29,99.9,-109
3654,130.788,66.23,0.87,0.83,0.24,-0.10,10.88,99.9,-103
3655,130.872,65.51,1.16,1.13,0.24,-0.10,10.88,99.9,-103
3656,130.955,65.00,1.60,1.52,0.49,-0.15,11.37,94.4,-103
3657,131.039,65.00,1.50,1.42,0.29,-0.39,11.37,94.4,-103
3658,131.123,64.51,1.40,1.32,0.24,-0.39,11.04,94.4,-103
3659,131.206,64.19,1.21,1.13,0.10,-0.44,11.06,94.4,-103
3666,131.373,61.84,0.97,0.88,0.39,0.05,11.00,94.4,-100
3667,131.540,61.15,0.99,0.88,0.44,0.05,11.43,94.8,-100
3668,131.707,60.65,1.01,0.98,0.24,0.00,11.04,94.8,-100
3669,131.874,60.65,1.01,0.98,0.24,-0.05,10.97,94.8,-100
3670,132.040,60.15,0.89,0.83,0.20,-0.24,10.89,94.8,-100
3672,132.307,59.46,1.07,0.74,0.44,-0.64,11.22,95.1,-98
3673,132.408,58.83,1.16,0.78,0.44,-0.74,10.86,95.1,-98
3674,132.508,58.28,1.30,0.88,0.54,-0.78,10.85,95.1,-98
3675,132.608,58.28,1.40,1.03,0.54,-0.78,10.83,95.1,-98
3678,132.892,57.10,1.24,1.13,0.20,-0.49,11.14,95.4,-100
3679,132.976,56.30,1.21,1.18,0.05,-0.29,11.14,95.4,-100
3680,133.060,55.59,0.83,0.83,-0.05,0.00,10.73,95.4,-100
3681,133.143,55.59,0.92,0.88,-0.20,0.20,10.73,95.4,-100
3682,133.227,55.04,1.15,1.03,-0.39,0.34,10.73,95.4,-100
3683,133.311,54.64,1.20,1.03,-0.29,0.54,10.73,95.4,-100
3684,133.394,54.32,1.08,0.98,0.05,-0.44,10.40,95.4,-101
3685,133.478,53.41,1.01,0.93,0.05,-0.39,10.41,95.4,-101
3686,133.561,52.70,1.09,1.03,0.05,-0.34,10.43,95.4,-101
3687,133.645,52.70,1.03,0.93,0.00,-0.44,10.94,90.4,-101
3688,133.729,52.15,1.21,1.08,0.05,-0.54,10.62,90.4,-101
3689,133.812,51.69,1.21,1.13,0.05,-0.44,10.62,90.4,-101
3696,133.996,48.89,1.04,1.03,0.10,-0.10,10.53,90.4,-109
3697,134.179,48.16,1.04,1.03,0.15,-0.05,10.94,90.9,-109
3698,134.363,47.70,0.99,0.83,0.44,-0.29,10.50,90.9,-109
3699,134.546,47.70,0.92,0.69,0.54,-0.29,10.41,90.9,-109
3700,134.730,47.28,0.91,0.69,0.54,-0.24,10.33,90.9,-109
3702,134.997,46.79,0.81,0.78,0.20,0.05,10.66,91.5,-99
3703,135.080,46.18,0.70,0.69,0.15,0.00,10.66,91.5,-99
3704,135.164,45.69,0.81,0.78,0.20,0.00,10.24,91.5,-99
3705,135.248,45.69,0.79,0.74,0.29,-0.05,10.24,91.5,-99
3708,135.498,44.60,0.76,0.74,0.20,-0.05,10.59,92.0,-105
3709,135.582,43.95,0.76,0.74,0.20,0.00,10.59,92.0,-105
3710,135.666,43.46,0.99,0.98,0.00,0.15,10.26,92.0,-105
3711,135.749,43.46,0.90,0.88,0.00,0.20,10.27,92.0,-105
3714,136.000,42.47,0.89,0.74,0.24,-0.44,10.63,92.4,-101
3715,136.084,41.82,1.03,0.74,0.34,-0.64,10.64,92.4,-101
3716,136.167,41.35,1.11,0.74,0.39,-0.74,10.33,92.4,-101
3717,136.251,41.35,1.13,0.69,0.44,-0.78,10.33,92.4,-101
3718,136.335,40.98,1.29,0.74,0.59,-0.88,10.33,92.4,-101
3720,136.502,40.39,1.00,0.98,-0.05,0.20,10.74,92.9,-112
3721,136.586,39.69,1.23,1.22,-0.05,-0.10,10.40,92.9,-112
3722,136.669,39.15,0.97,0.88,0.05,-0.39,10.40,92.9,-112
3723,136.753,39.15,0.98,0.78,0.05,-0.59,10.40,92.9,-112
3726,137.020,38.15,0.95,0.93,-0.15,-0.10,10.73,93.3,-108
3727,137.121,37.58,0.70,0.69,-0.05,-0.15,10.72,93.3,-108
3728,137.221,37.20,0.65,0.64,-0.05,-0.10,10.28,93.3,-108
3729,137.321,37.20,0.79,0.78,-0.05,-0.05,10.27,93.3,-108
3732,137.605,36.46,1.17,0.98,0.00,-0.64,10.59,93.7,-113
3733,137.689,35.92,0.96,0.78,0.10,-0.54,10.59,93.7,-113
3734,137.773,35.46,0.75,0.64,0.20,-0.34,10.26,93.7,-113
3735,137.856,35.46,0.68,0.64,0.15,-0.20,10.27,93.7,-113
3738,138.107,34.64,0.90,0.78,0.20,-0.39,10.63,94.1,-104
3739,138.191,34.20,0.91,0.78,0.24,-0.39,10.64,94.1,-104
3740,138.274,33.76,1.01,0.78,0.34,-0.54,10.33,94.1,-104
3741,138.358,33.76,1.12,0.93,0.39,-0.49,10.33,94.1,-104
3742,138.442,33.37,1.16,0.93,0.54,-0.44,10.33,94.1,-104
3744,138.609,32.97,0.90,0.88,0.00,0.20,10.74,94.4,-104
3745,138.693,32.48,0.98,0.88,-0.34,0.24,10.40,94.4,-104
3746,138.776,32.15,1.01,0.93,-0.39,0.10,10.40,94.4,-104
3747,138.860,32.15,1.21,1.08,-0.54,0.00,10.40,94.4,-104
3750,139.127,31.33,1.35,1.08,0.78,-0.20,10.73,94.7,-103
3751,139.228,30.85,1.21,1.13,0.44,-0.05,10.37,94.7,-103
3752,139.328,30.40,1.32,1.27,0.05,0.34,10.35,94.7,-103
3753,139.428,30.40,1.26,1.18,-0.15,0.44,10.34,94.7,-103
3756,139.712,29.63,1.36,1.32,0.29,-0.10,10.66,95.0,-102
3757,139.796,29.04,1.49,1.22,0.49,-0.69,10.66,95.0,-102
3758,139.880,28.63,1.65,1.37,0.54,-0.74,10.24,95.0,-102
3759,139.963,28.63,1.58,1.27,0.59,-0.74,10.24,95.0,-102
3762,140.214,27.88,1.14,0.74,0.59,-0.64,10.59,95.3,-104
3763,140.298,27.31,1.12,0.93,0.49,-0.39,10.59,95.3,-104
3764,140.381,26.87,0.90,0.88,0.10,-0.15,10.26,95.3,-104
3765,140.465,26.87,1.28,1.22,-0.34,0.10,10.27,95.3,-104
3766,140.549,26.56,1.36,1.22,-0.59,0.00,10.28,95.3,-104
3768,140.716,26.05,1.04,1.03,0.10,0.10,10.72,95.6,-102
3769,140.799,25.47,1.16,1.03,0.05,0.54,10.40,95.6,-102
3770,140.883,24.97,1.46,1.22,0.10,0.78,10.40,95.6,-102
3771,140.967,24.97,1.38,1.08,0.20,0.83,10.40,95.6,-102
3774,141.234,23.97,0.74,0.74,0.05,0.00,10.73,95.9,-103
3775,141.335,23.27,0.64,0.64,0.05,0.00,10.37,95.9,-103
3776,141.435,22.71,0.69,0.69,0.05,0.10,10.35,95.9,-103
3777,141.535,22.71,0.65,0.59,0.15,0.24,10.34,95.9,-103
3780,141.819,21.69,0.95,0.64,0.59,-0.39,10.66,96.1,-103
3781,141.903,21.08,0.87,0.59,0.54,-0.34,10.66,96.1,-103
3782,141.986,20.61,0.78,0.64,0.34,-0.29,10.24,96.1,-103
3783,142.070,20.61,0.76,0.69,0.29,-0.15,10.24,96.1,-103
3786,142.321,19.79,0.75,0.54,0.49,-0.20,10.59,96.3,-101
3787,142.405,19.21,1.21,0.88,0.78,-0.24,10.59,96.3,-101
3788,142.488,18.67,1.36,0.93,0.88,-0.44,10.26,96.3,-101
3789,142.572,18.67,1.38,1.13,0.74,-0.29,10.27,96.3,-101
3792,142.823,17.67,0.62,0.49,0.29,-0.24,10.63,96.5,-106
3793,142.906,17.00,0.74,0.64,0.29,-0.24,10.64,96.5,-106
3794,142.990,16.36,1.09,0.98,0.44,-0.20,10.66,96.5,-106
3795,143.074,16.36,1.33,1.18,0.49,-0.39,10.67,96.5,-106
3798,143.341,15.26,0.76,0.69,0.15,-0.29,10.99,96.7,-109
3799,143.441,14.58,0.75,0.64,0.20,-0.34,10.98,96.7,-109
3800,143.542,14.11,0.95,0.78,0.20,-0.49,10.49,96.7,-109
3801,143.642,14.11,1.04,0.88,0.24,-0.49,10.47,96.7,-109
3804,143.926,13.11,0.54,0.54,0.05,-0.05,10.78,96.9,-111
3805,144.010,12.52,0.57,0.54,0.10,-0.15,10.78,96.9,-111
3806,144.093,12.06,0.66,0.64,0.10,-0.15,10.85,96.9,-111
3807,144.177,12.06,0.75,0.74,0.15,-0.05,10.45,96.9,-111
3810,144.428,10.96,0.79,0.69,0.39,-0.05,10.85,97.1,-114
3811,144.511,10.45,0.61,0.44,0.39,-0.15,10.92,97.1,-114
3812,144.595,10.03,0.65,0.44,0.44,-0.20,10.99,97.1,-114
3813,144.679,10.03,1.00,0.74,0.59,-0.34,10.67,97.1,-114
3816,144.930,9.09,1.01,0.93,0.39,0.00,11.02,97.3,-113
3817,145.013,8.51,1.10,0.98,0.49,0.00,11.04,97.3,-113
3818,145.097,8.04,1.20,1.13,0.39,0.15,11.05,97.3,-113
3819,145.180,8.04,1.22,1.18,0.24,0.20,10.74,97.3,-113
3820,145.264,7.68,1.20,1.13,0.10,0.39,10.74,97.3,-113
3821,145.348,7.48,1.15,1.13,0.00,0.24,10.74,97.3,-113
3822,145.431,7.25,1.48,1.27,0.64,-0.39,10.74,97.3,-124
3823,145.515,6.74,1.47,1.32,0.64,-0.10,10.74,97.3,-124
3824,145.599,6.29,1.57,1.47,0.54,0.05,10.74,97.3,-124
3825,145.682,6.29,1.57,1.47,0.54,0.10,10.74,97.3,-124
3826,145.766,5.93,1.35,1.32,0.29,0.00,10.74,97.3,-124
3827,145.849,5.73,1.30,1.22,0.44,0.00,10.74,97.3,-124
4308,187.182,0.70,1.13,0.05,-0.34,-1.08,2.47,6.6,-123
4309,187.382,0.76,1.11,0.05,-0.24,-1.08,2.46,6.6,-123
4310,187.582,0.78,1.17,0.05,-0.29,-1.13,2.45,6.6,-123
4311,187.782,0.78,1.18,0.10,-0.34,-1.13,2.45,6.6,-123
4312,187.982,0.75,1.12,0.05,-0.29,-1.08,2.34,6.6,-123
4313,188.182,0.67,1.12,0.10,-0.29,-1.08,2.34,6.6,-123
4314,188.282,0.79,1.22,0.10,-0.29,-1.18,2.46,12.1,-122
4315,188.382,0.79,1.03,0.10,-0.29,-0.98,2.46,12.1,-122
4316,188.482,0.83,0.99,0.05,-0.15,-0.98,2.36,12.1,-122
4317,188.582,0.83,0.94,0.05,-0.15,-0.93,2.36,12.1,-122
4318,188.682,0.81,0.95,0.10,-0.15,-0.93,2.35,12.1,-122
4319,188.782,0.78,0.98,0.00,-0.10,-0.98,2.47,17.2,-122
4320,188.866,0.86,1.12,0.05,-0.29,-1.08,2.36,17.2,-123
4321,188.949,0.83,1.12,0.10,-0.29,-1.08,2.36,17.2,-123
4322,189.033,0.82,1.05,0.05,-0.20,-1.03,2.36,17.2,-123
4323,189.117,0.82,1.11,0.10,-0.24,-1.08,2.36,17.2,-123
4324,189.200,0.79,1.15,0.05,-0.24,-1.13,2.37,22.0,-123
4325,189.284,0.81,1.14,0.05,-0.20,-1.13,2.37,22.0,-123
4326,189.367,0.77,1.19,0.05,-0.15,-1.18,2.37,22.0,-127
4327,189.451,0.72,1.19,0.10,-0.15,-1.18,2.37,22.0,-127
4328,189.535,0.67,1.20,0.10,-0.20,-1.18,2.37,22.0,-127
4329,189.618,0.67,1.10,0.10,-0.20,-1.08,2.26,22.0,-127
4330,189.702,0.69,1.05,0.05,-0.20,-1.03,2.26,22.0,-127
4331,189.785,0.67,1.06,0.05,-0.24,-1.03,2.26,22.0,-127
4338,189.969,0.74,1.05,0.10,-0.20,-1.03,2.37,25.4,-126
4339,190.153,0.65,1.10,0.10,-0.20,-1.08,2.26,25.4,-126
4340,190.337,0.72,1.15,0.10,-0.20,-1.13,2.25,25.4,-126
4341,190.520,0.72,1.15,0.10,-0.20,-1.13,2.25,25.4,-126
4342,190.704,0.67,1.20,0.10,-0.20,-1.18,2.25,25.4,-126
4343,190.888,0.67,1.20,0.10,-0.20,-1.18,2.14,25.4,-126
4344,190.971,0.72,1.09,0.10,-0.15,-1.08,2.25,29.8,-127
4345,191.055,0.64,1.13,0.05,-0.10,-1.13,2.25,29.8,-127
4346,191.138,0.65,1.10,0.10,-0.20,-1.08,2.25,29.8,-127
4347,191.221,0.65,1.19,0.05,-0.15,-1.18,2.15,29.8,-127
4348,191.305,0.65,1.10,0.10,-0.20,-1.08,2.26,33.9,-127
4349,191.388,0.64,1.10,0.10,-0.20,-1.08,2.26,33.9,-127
4350,191.472,0.73,1.25,0.05,-0.24,-1.22,2.26,33.9,-124
4351,191.555,0.70,1.19,0.05,-0.20,-1.18,2.26,33.9,-124
4352,191.639,0.70,1.15,0.05,-0.24,-1.13,2.15,33.9,-124
4353,191.722,0.70,1.06,0.15,-0.20,-1.03,2.26,37.7,-124
4354,191.806,0.70,1.08,0.05,-0.10,-1.08,2.26,37.7,-124
4355,191.890,0.68,1.10,0.10,-0.20,-1.08,2.26,37.7,-124
4356,191.973,0.67,1.23,0.05,-0.15,-1.22,2.16,37.7,-127
4357,192.057,0.63,1.19,0.05,-0.20,-1.18,2.16,37.7,-127
4358,192.140,0.65,1.14,0.10,-0.15,-1.13,2.16,37.7,-127
4359,192.224,0.65,1.19,0.05,-0.15,-1.18,2.16,37.7,-127
4360,192.308,0.67,1.14,0.05,-0.20,-1.13,2.05,37.7,-127
4361,192.391,0.66,1.19,0.10,-0.15,-1.18,2.05,37.7,-127
4386,194.091,0.70,1.23,0.05,-0.10,-1.22,2.10,33.8,-125
4387,194.291,0.62,1.23,0.10,-0.10,-1.22,2.10,33.8,-125
4388,194.491,0.59,1.18,0.10,-0.10,-1.18,1.99,33.8,-125
4389,194.691,0.59,1.18,0.05,-0.10,-1.18,1.99,33.8,-125
4390,194.891,0.59,1.08,0.05,-0.10,-1.08,1.98,33.8,-125
4391,195.091,0.60,1.04,0.05,-0.15,-1.03,1.98,33.8,-125
5388,281.731,0.66,1.03,0.34,-0.29,-0.93,0.81,5.9,-127
5389,281.931,0.58,1.14,0.34,-0.34,-1.03,0.76,5.9,-127
5390,282.131,0.56,1.32,0.44,-0.54,-1.13,0.76,5.9,-127
5391,282.331,0.56,1.27,0.39,-0.64,-1.03,0.76,5.9,-127
5392,282.531,0.49,0.96,0.34,-0.44,-0.78,0.76,5.9,-127
5393,282.731,0.53,0.92,0.34,-0.44,-0.74,0.72,5.9,-127
5574,298.000,0.85,1.08,0.59,-0.34,-0.83,0.69,6.8,-125
5575,298.200,0.80,1.03,0.49,-0.34,-0.83,0.69,6.8,-125
5576,298.400,0.84,1.05,0.54,-0.44,-0.78,0.69,6.8,-125
5577,298.600,0.84,0.96,0.44,-0.44,-0.74,0.65,6.8,-125
5578,298.800,0.86,0.83,0.44,-0.29,-0.64,0.65,6.8,-125
5579,299.000,0.92,0.66,0.39,-0.20,-0.49,0.65,6.8,-125
5586,299.184,0.80,1.38,0.49,-0.39,-1.22,0.69,11.8,-126
5587,299.367,0.77,1.23,0.39,-0.29,-1.13,0.65,11.8,-126
5588,299.550,0.77,1.07,0.39,-0.34,-0.93,0.65,11.8,-126
5589,299.734,0.77,1.00,0.49,-0.39,-0.78,0.65,11.8,-126
5590,299.917,0.76,1.09,0.54,-0.44,-0.83,0.65,11.8,-126
5591,300.100,0.78,1.21,0.59,-0.49,-0.93,0.61,11.8,-126
5610,301.199,0.96,1.06,0.24,-0.44,-0.93,0.64,15.2,-115
5611,301.399,0.92,1.06,0.24,-0.44,-0.93,0.64,15.2,-115
5612,301.599,0.89,1.01,0.29,-0.39,-0.88,0.64,15.2,-115
5613,301.799,0.89,1.14,0.34,-0.34,-1.03,0.61,15.2,-115
5614,301.999,0.86,1.18,0.34,-0.34,-1.08,0.61,15.2,-115
5615,302.199,0.85,1.29,0.44,-0.44,-1.13,0.64,20.1,-115
5616,302.282,0.91,1.09,0.44,-0.20,-0.98,0.64,20.1,-121
5617,302.365,0.87,1.16,0.44,-0.29,-1.03,0.61,20.1,-121
5618,302.448,0.85,1.35,0.44,-0.34,-1.22,0.61,20.1,-121
5619,302.532,0.85,1.31,0.49,-0.44,-1.13,0.61,20.1,-121
5620,302.615,0.84,1.17,0.39,-0.39,-1.03,0.64,24.8,-121
5621,302.698,0.86,0.98,0.39,-0.34,-0.83,0.61,24.8,-121
5622,302.782,0.83,1.01,0.29,-0.39,-0.88,0.61,24.8,-114
5623,302.865,0.82,0.98,0.20,-0.39,-0.88,0.61,24.8,-114
5624,302.949,0.78,1.20,0.34,-0.39,-1.08,0.61,24.8,-114
5625,303.033,0.78,1.18,0.29,-0.39,-1.08,0.57,24.8,-114
5626,303.116,0.78,1.11,0.29,-0.29,-1.03,0.61,29.2,-114
5627,303.200,0.74,1.08,0.29,-0.34,-0.98,0.61,29.2,-114
5628,303.300,0.82,0.81,0.29,-0.15,-0.74,0.61,29.2,-121
5629,303.400,0.83,0.87,0.34,-0.15,-0.78,0.61,29.2,-121
5630,303.500,0.90,0.91,0.39,-0.24,-0.78,0.61,29.2,-121
5631,303.601,0.90,0.93,0.34,-0.24,-0.83,0.61,29.2,-121
5632,303.701,0.85,1.08,0.39,-0.24,-0.98,0.61,29.2,-121
5633,303.801,0.88,1.29,0.39,-0.34,-1.18,0.61,29.2,-121
5640,303.968,0.85,0.78,0.24,-0.10,-0.74,0.64,31.7,-112
5641,304.135,0.79,0.79,0.29,-0.05,-0.74,0.64,31.7,-112
5642,304.301,0.86,0.86,0.20,-0.05,-0.83,0.64,31.7,-112
5643,304.468,0.86,0.90,0.20,-0.05,-0.88,0.82,31.7,-112
5644,304.635,0.81,0.93,0.29,-0.05,-0.88,0.82,31.7,-112
5645,304.802,0.88,0.94,0.29,-0.15,-0.88,0.87,35.7,-112
5646,304.885,0.94,0.88,0.15,-0.24,-0.83,0.87,35.7,-115
5647,304.969,0.86,0.75,0.20,-0.24,-0.69,0.87,35.7,-115
5648,305.052,0.81,0.75,0.05,-0.15,-0.74,0.87,35.7,-115
5649,305.136,0.81,0.90,0.10,-0.15,-0.88,0.82,35.7,-115
5650,305.219,0.78,0.79,0.05,-0.10,-0.78,0.82,35.7,-115
5651,305.303,0.79,0.92,0.15,-0.20,-0.88,0.87,39.5,-115
5652,305.403,0.82,0.92,0.39,-0.54,-0.64,0.87,39.5,-114
5653,305.503,0.79,0.82,0.29,-0.34,-0.69,0.87,39.5,-114
5654,305.603,0.79,0.79,0.20,-0.20,-0.74,0.82,39.5,-114
5655,305.703,0.79,0.92,0.20,-0.15,-0.88,0.82,39.5,-114
5656,305.804,0.72,0.90,0.15,-0.05,-0.88,0.87,43.0,-114
5657,305.904,0.72,0.91,0.15,-0.15,-0.88,0.87,43.0,-114
5658,305.987,0.86,1.03,0.29,-0.44,-0.88,0.87,43.0,-115
5659,306.071,0.79,1.04,0.34,-0.44,-0.88,0.82,43.0,-115
5660,306.154,0.77,1.01,0.29,-0.49,-0.83,0.82,43.0,-115
5661,306.238,0.77,0.89,0.24,-0.34,-0.78,0.87,46.4,-115
5662,306.321,0.77,0.91,0.15,-0.34,-0.83,0.87,46.4,-115
5663,306.405,0.73,0.94,0.20,-0.39,-0.83,0.87,46.4,-115
5664,306.489,0.77,0.97,0.29,-0.49,-0.78,0.87,46.4,-111
5665,306.572,0.79,1.13,0.39,-0.59,-0.88,0.87,46.4,-111
5666,306.656,0.79,0.98,0.39,-0.44,-0.78,0.92,49.5,-111
5667,306.739,0.79,0.90,0.34,-0.39,-0.74,0.87,49.5,-111
5668,306.823,0.77,0.71,0.24,-0.20,-0.64,0.87,49.5,-111
5669,306.906,0.84,0.72,0.20,-0.10,-0.69,0.88,49.5,-111
5670,306.990,0.93,0.92,0.29,-0.54,-0.69,0.88,49.5,-111
5671,307.073,0.90,0.96,0.34,-0.64,-0.64,0.88,49.5,-111
5672,307.157,0.87,1.00,0.34,-0.64,-0.69,0.88,49.5,-111
5673,307.241,0.87,1.07,0.44,-0.69,-0.69,0.83,49.5,-111
5674,307.324,0.86,0.97,0.29,-0.39,-0.83,0.83,49.5,-111
5675,307.408,0.90,0.96,0.34,-0.44,-0.78,0.83,49.5,-111
5682,307.591,1.05,1.64,0.64,-0.74,-1.32,0.88,49.7,-108
5683,307.774,1.01,1.63,0.69,-0.54,-1.37,0.82,49.7,-108
5684,307.958,0.99,1.20,0.39,-0.34,-1.08,0.82,49.7,-108
5685,308.141,0.99,0.97,0.29,-0.29,-0.88,0.82,49.7,-108
5686,308.324,0.93,0.75,0.24,-0.20,-0.69,0.82,49.7,-108
5687,308.508,0.94,0.84,0.29,-0.29,-0.74,0.87,52.7,-108
5688,308.591,0.95,0.96,0.44,-0.44,-0.74,0.82,52.7,-109
5689,308.675,0.91,1.12,0.54,-0.44,-0.88,0.82,52.7,-109
5690,308.758,0.94,1.20,0.54,-0.54,-0.93,0.82,52.7,-109
5691,308.842,0.94,1.08,0.44,-0.44,-0.88,0.82,52.7,-109
5692,308.925,0.99,1.05,0.49,-0.49,-0.78,0.87,55.4,-109
5693,309.009,0.99,1.02,0.44,-0.49,-0.78,0.87,55.4,-109
5694,309.093,0.94,0.91,0.34,-0.49,-0.69,0.87,55.4,-114
5695,309.176,0.95,0.83,0.39,-0.44,-0.59,0.87,55.4,-114
5696,309.260,1.01,0.65,0.39,-0.39,-0.34,0.87,55.4,-114
5697,309.343,1.01,0.85,0.44,-0.49,-0.54,0.89,58.0,-114
5698,309.427,0.95,1.21,0.59,-0.59,-0.88,0.89,58.0,-114
5699,309.510,0.91,1.53,0.54,-0.74,-1.22,0.89,58.0,-114
5700,309.594,0.98,1.16,0.39,-0.49,-0.98,0.89,58.0,-115
5701,309.677,0.95,1.14,0.44,-0.49,-0.93,0.89,58.0,-115
5702,309.761,0.96,0.88,0.39,-0.39,-0.69,0.89,58.0,-115
5703,309.845,0.96,0.88,0.34,-0.34,-0.74,3.41,58.0,-115
5704,309.928,0.85,1.08,0.44,-0.44,-0.88,3.43,58.0,-115
5705,310.012,0.90,1.22,0.44,-0.49,-1.03,3.44,58.0,-115
5712,310.195,0.97,0.94,0.34,-0.39,-0.78,3.66,57.3,-104
5713,310.378,0.95,1.04,0.39,-0.39,-0.88,3.66,57.3,-104
5714,310.562,0.96,1.16,0.44,-0.54,-0.93,3.66,57.3,-104
5715,310.745,0.96,1.11,0.39,-0.54,-0.88,7.53,57.3,-104
5716,310.929,0.90,1.07,0.39,-0.54,-0.83,7.54,57.3,-104
5717,311.112,0.92,0.95,0.34,-0.49,-0.74,8.02,59.8,-104
5718,311.196,0.89,0.87,0.54,-0.34,-0.59,8.10,59.8,-104
5719,311.279,0.93,0.87,0.49,-0.34,-0.64,8.17,59.8,-104
5720,311.363,0.94,1.04,0.59,-0.44,-0.74,8.25,59.8,-104
5721,311.446,0.94,1.05,0.54,-0.44,-0.78,7.83,59.8,-104
5722,311.530,0.91,0.93,0.49,-0.39,-0.69,8.39,62.2,-104
5723,311.613,0.90,0.99,0.49,-0.44,-0.74,8.46,62.2,-104
5724,311.697,0.88,1.05,0.44,-0.54,-0.78,8.53,62.2,-109
5725,311.780,0.87,1.03,0.39,-0.54,-0.78,8.60,62.2,-109
5726,311.864,0.89,1.05,0.44,-0.54,-0.78,8.67,62.2,-109
5727,311.947,0.89,1.12,0.44,-0.44,-0.93,8.93,62.2,-109
5728,312.031,0.83,1.16,0.44,-0.44,-0.98,9.59,64.4,-109
5729,312.114,0.91,1.02,0.44,-0.49,-0.78,9.70,64.4,-109
5730,312.214,0.96,0.82,0.44,-0.10,-0.69,9.79,64.4,-102
5731,312.314,0.98,0.89,0.59,-0.20,-0.64,9.89,64.4,-102
5732,312.415,0.98,0.99,0.59,-0.29,-0.74,9.40,64.4,-102
5733,312.515,0.98,1.04,0.54,-0.29,-0.83,9.97,66.5,-102
5734,312.615,0.99,1.08,0.49,-0.39,-0.88,9.95,66.5,-102
5735,312.715,0.95,1.18,0.54,-0.49,-0.93,9.93,66.5,-102
5736,312.799,0.99,0.70,0.29,-0.24,-0.59,9.93,66.5,-101
5737,312.882,1.04,0.85,0.44,-0.34,-0.64,9.35,66.5,-101
5738,312.966,1.05,0.90,0.39,-0.34,-0.74,9.93,68.4,-101
5739,313.049,1.05,1.00,0.44,-0.44,-0.78,9.93,68.4,-101
5740,313.133,1.01,1.14,0.49,-0.44,-0.93,9.93,68.4,-101
5741,313.217,1.06,1.12,0.49,-0.49,-0.88,9.93,68.4,-101
5742,313.300,1.12,0.75,0.49,-0.20,-0.54,9.93,68.4,-91
5743,313.384,1.08,0.66,0.39,-0.20,-0.49,9.93,70.3,-91
5744,313.467,1.07,0.68,0.44,-0.15,-0.49,9.93,70.3,-91
5745,313.551,1.07,0.71,0.54,-0.15,-0.44,9.95,70.3,-91
5746,313.634,1.01,1.00,0.64,-0.24,-0.74,9.97,70.3,-91
5747,313.718,1.01,1.00,0.59,-0.20,-0.78,9.98,70.3,-91
5748,313.802,1.05,0.83,0.44,-0.29,-0.64,10.00,70.3,-82
5749,313.885,1.00,0.75,0.39,-0.24,-0.59,10.60,72.0,-82
5750,313.969,0.96,0.79,0.44,-0.29,-0.59,10.62,72.0,-82
5751,314.052,0.96,0.93,0.49,-0.39,-0.69,10.11,72.0,-82
5752,314.136,0.96,0.99,0.54,-0.39,-0.74,10.20,72.0,-82
5753,314.219,1.03,1.01,0.59,-0.44,-0.69,10.28,72.0,-82
5754,314.319,1.05,0.69,0.34,-0.10,-0.59,10.96,73.6,-76
5755,314.420,1.11,0.78,0.34,-0.15,-0.69,11.04,73.6,-76
5756,314.520,1.08,0.69,0.34,-0.10,-0.59,10.50,73.6,-76
5757,314.620,1.08,0.62,0.34,-0.15,-0.49,10.48,73.6,-76
5758,314.720,1.03,0.67,0.54,-0.20,-0.34,10.46,73.6,-76
5760,314.904,1.12,0.82,0.54,-0.20,-0.59,10.96,75.2,-80
5761,314.988,1.04,0.82,0.49,-0.15,-0.64,10.96,75.2,-80
5762,315.071,0.98,0.80,0.44,-0.20,-0.64,10.96,75.2,-80
5763,315.155,0.98,0.71,0.44,-0.15,-0.54,10.35,75.2,-80
5764,315.238,0.95,0.71,0.54,-0.24,-0.39,10.37,75.2,-80
5766,315.405,1.05,0.95,0.44,-0.29,-0.78,10.91,76.6,-73
5767,315.489,1.01,0.87,0.44,-0.29,-0.69,10.92,76.6,-73
5768,315.572,0.93,0.87,0.44,-0.29,-0.69,10.94,76.6,-73
5769,315.656,0.93,0.76,0.29,-0.15,-0.69,10.35,76.6,-73
5770,315.740,0.98,0.90,0.34,-0.05,-0.83,10.37,76.6,-73
5771,315.823,1.06,0.98,0.29,0.00,-0.93,10.37,76.6,-73
5772,315.907,1.06,1.38,0.39,-0.05,-1.32,10.98,78.0,-71
5773,315.990,0.95,1.29,0.39,-0.10,-1.22,10.98,78.0,-71
5774,316.074,0.85,1.17,0.29,-0.10,-1.13,10.37,78.0,-71
5775,316.157,0.85,1.03,0.29,-0.10,-0.98,10.37,78.0,-71
5776,316.241,0.80,1.12,0.29,0.00,-1.08,10.37,78.0,-71
5778,316.425,0.81,1.18,0.05,-0.10,-1.18,10.87,79.3,-74
5779,316.525,0.74,1.20,0.10,-0.24,-1.18,10.85,79.3,-74
5780,316.625,0.71,1.30,0.15,-0.20,-1.27,10.23,79.3,-74
5781,316.725,0.71,1.26,0.15,-0.24,-1.22,10.21,79.3,-74
5782,316.825,0.77,1.25,0.24,-0.34,-1.18,10.20,79.3,-74
5784,317.009,0.78,1.09,0.15,-0.10,-1.08,10.69,80.5,-96
5785,317.093,0.81,1.14,0.15,-0.10,-1.13,10.69,80.5,-96
5786,317.176,0.79,1.21,0.20,-0.20,-1.18,10.69,80.5,-96
5787,317.260,0.79,1.22,0.20,-0.24,-1.18,10.69,80.5,-96
5788,317.343,0.76,1.20,0.20,-0.10,-1.18,10.69,80.5,-96
5790,317.510,0.91,1.09,0.15,-0.10,-1.08,11.19,81.6,-91
5791,317.594,0.88,1.12,0.24,-0.20,-1.08,11.19,81.6,-91
5792,317.678,0.86,1.13,0.24,-0.24,-1.08,10.71,81.6,-91
5793,317.761,0.86,1.12,0.24,-0.20,-1.08,10.81,81.6,-91
5794,317.845,0.86,1.12,0.24,-0.20,-1.08,10.92,81.6,-91
5795,317.928,0.78,1.17,0.20,-0.24,-1.13,11.03,81.6,-91
5796,318.012,0.82,1.11,0.20,-0.15,-1.08,11.77,82.7,-83
5797,318.095,0.81,1.16,0.24,-0.10,-1.13,11.26,82.7,-83
5798,318.179,0.86,1.10,0.20,-0.10,-1.08,11.26,82.7,-83
5799,318.263,0.86,1.06,0.24,-0.10,-1.03,11.26,82.7,-83
5800,318.346,0.83,1.05,0.20,-0.05,-1.03,11.26,82.7,-83
5802,318.530,0.76,1.11,0.24,-0.10,-1.08,11.77,83.7,-89
5803,318.630,0.70,1.07,0.24,-0.15,-1.03,11.13,83.7,-89
5804,318.730,0.72,1.01,0.24,-0.10,-0.98,11.11,83.7,-89
5805,318.830,0.72,1.00,0.20,-0.05,-0.98,11.09,83.7,-89
5806,318.930,0.66,1.06,0.24,-0.10,-1.03,11.07,83.7,-89
5808,319.114,0.77,1.12,0.24,-0.20,-1.08,11.57,84.7,-93
5809,319.198,0.79,1.07,0.24,-0.15,-1.03,10.96,84.7,-93
5810,319.281,0.78,1.20,0.34,-0.24,-1.13,10.96,84.7,-93
5811,319.365,0.78,1.16,0.34,-0.24,-1.08,10.96,84.7,-93
5812,319.448,0.79,1.20,0.34,-0.24,-1.13,10.96,84.7,-93
5814,319.615,0.86,1.11,0.49,-0.34,-0.93,11.47,85.6,-91
5815,319.699,0.82,1.10,0.44,-0.39,-0.93,11.47,85.6,-91
5816,319.782,0.89,1.06,0.44,-0.39,-0.88,11.47,85.6,-91
5817,319.866,0.89,1.08,0.49,-0.39,-0.88,11.47,85.6,-91
5818,319.950,0.87,0.97,0.49,-0.29,-0.78,11.47,85.6,-91
5819,320.033,0.82,1.07,0.44,-0.29,-0.93,10.98,85.6,-91
5820,320.117,0.89,0.98,0.64,-0.10,-0.74,11.71,86.4,-98
5821,320.200,0.90,0.96,0.64,-0.20,-0.69,11.83,86.4,-98
5822,320.284,0.93,1.02,0.64,-0.39,-0.69,11.95,86.4,-98
5823,320.367,0.93,1.02,0.64,-0.39,-0.69,12.08,86.4,-98
5824,320.451,0.91,1.00,0.64,-0.49,-0.59,11.56,86.4,-98
5826,320.635,0.94,1.02,0.69,-0.20,-0.74,12.08,87.2,-96
5827,320.735,0.86,1.05,0.69,-0.15,-0.78,12.06,87.2,-96
5828,320.835,0.94,1.13,0.74,-0.20,-0.83,12.04,87.2,-96
5829,320.935,0.94,1.07,0.74,-0.24,-0.74,12.01,87.2,-96
5830,321.035,0.94,1.07,0.78,-0.24,-0.69,11.36,87.2,-96
5832,321.219,1.00,1.04,0.64,-0.24,-0.78,11.87,88.0,-97
5833,321.303,0.98,1.00,0.64,-0.24,-0.74,11.87,88.0,-97
5834,321.386,1.02,1.07,0.64,-0.34,-0.78,11.87,88.0,-97
5835,321.470,1.02,1.04,0.59,-0.34,-0.78,11.87,88.0,-97
5836,321.553,0.98,1.03,0.64,-0.34,-0.74,11.87,88.0,-97
5838,321.720,1.07,0.94,0.54,-0.24,-0.74,11.77,88.7,-90
5839,321.804,0.98,0.86,0.49,-0.15,-0.69,11.76,88.7,-90
5840,321.887,1.01,0.89,0.49,-0.10,-0.74,11.79,88.7,-90
5841,321.971,1.01,0.92,0.59,-0.20,-0.69,11.81,88.7,-90
5842,322.054,1.01,0.97,0.64,-0.24,-0.69,11.83,88.7,-90
5844,322.222,1.12,0.95,0.83,-0.15,-0.44,11.74,89.3,-90
5845,322.305,1.07,0.89,0.78,-0.15,-0.39,11.76,89.3,-90
5846,322.389,1.16,0.89,0.74,-0.05,-0.49,11.78,89.3,-90
5847,322.472,1.16,0.89,0.74,-0.10,-0.49,11.78,89.3,-90
5848,322.556,1.09,0.86,0.74,-0.10,-0.44,11.78,89.3,-90
5849,322.639,1.11,0.91,0.83,-0.10,-0.34,11.16,89.3,-90
5850,322.723,1.16,0.92,0.88,0.00,-0.24,11.78,90.0,-87
5851,322.807,1.16,0.90,0.88,0.05,-0.20,11.78,90.0,-87
5852,322.890,1.17,0.92,0.88,0.05,-0.24,11.78,90.0,-87
5853,322.974,1.17,0.95,0.88,0.00,-0.34,11.78,90.0,-87
5854,323.058,1.24,0.99,0.93,0.00,-0.34,11.16,90.0,-87
5856,323.242,1.36,0.98,0.93,0.05,-0.29,11.66,90.5,-93
5857,323.342,1.32,0.93,0.88,0.00,-0.29,11.64,90.5,-93
5858,323.442,1.29,0.87,0.83,0.00,-0.24,11.62,90.5,-93
5859,323.542,1.29,0.81,0.78,0.00,-0.20,11.60,90.5,-93
5860,323.642,1.30,0.69,0.69,0.05,-0.05,11.58,90.5,-93
5862,323.826,1.45,1.01,0.78,-0.05,-0.64,11.47,91.1,-101
5863,323.910,1.36,0.91,0.69,-0.10,-0.59,11.47,91.1,-101
5864,323.993,1.33,0.89,0.69,-0.20,-0.54,11.47,91.1,-101
5865,324.077,1.33,0.80,0.69,-0.15,-0.39,11.47,91.1,-101
5866,324.160,1.20,0.70,0.59,-0.24,-0.29,11.47,91.1,-101
5868,324.327,1.25,0.73,0.64,-0.20,-0.29,11.39,91.6,-88
5869,324.411,1.19,0.91,0.78,-0.15,-0.44,11.41,91.6,-88
5870,324.494,1.11,0.89,0.69,-0.20,-0.54,11.43,91.6,-88
5871,324.578,1.11,0.95,0.78,-0.20,-0.49,11.45,91.6,-88
5872,324.662,1.10,0.89,0.78,-0.24,-0.34,11.47,91.6,-88
5874,324.829,1.12,0.78,0.64,-0.44,0.05,11.49,92.1,-91
5875,324.912,1.12,0.82,0.69,-0.44,0.10,11.49,92.1,-91
5876,324.996,1.14,0.78,0.64,-0.44,0.05,11.49,92.1,-91
5877,325.079,1.14,0.62,0.59,-0.20,-0.05,11.49,92.1,-91
5878,325.163,1.15,0.64,0.59,-0.24,0.05,11.49,92.1,-91
5880,325.347,1.24,0.74,0.44,-0.54,-0.24,11.47,92.6,-95
5881,325.447,1.22,0.77,0.54,-0.54,-0.10,11.45,92.6,-95
5882,325.547,1.24,0.76,0.54,-0.54,0.00,11.43,92.6,-95
5883,325.647,1.24,0.74,0.54,-0.49,-0.10,11.41,92.6,-95
5884,325.747,1.14,0.80,0.59,-0.54,-0.10,11.39,92.6,-95
5886,325.931,1.18,0.60,0.34,-0.49,0.05,11.87,93.0,-92
5887,326.015,1.12,0.63,0.39,-0.49,0.05,11.28,93.0,-92
5888,326.098,1.15,0.66,0.29,-0.59,0.05,11.28,93.0,-92
5889,326.182,1.15,0.67,0.39,-0.54,0.10,11.28,93.0,-92
5890,326.265,1.06,0.67,0.44,-0.49,0.10,11.28,93.0,-92
5892,326.432,1.08,0.74,0.59,-0.44,-0.10,11.77,93.4,-90
5893,326.516,0.94,0.83,0.64,-0.49,-0.20,11.30,93.4,-90
5894,326.599,0.98,0.89,0.64,-0.59,-0.20,11.32,93.4,-90
5895,326.683,0.98,1.00,0.74,-0.64,-0.24,11.33,93.4,-90
5896,326.766,0.96,0.99,0.69,-0.69,-0.20,11.35,93.4,-90
5897,326.850,0.93,0.95,0.69,-0.64,-0.15,11.37,93.4,-90
5898,326.934,0.97,0.80,0.64,-0.44,-0.20,11.49,93.8,-89
5899,327.017,0.89,0.73,0.59,-0.39,-0.20,11.49,93.8,-89
5900,327.101,0.89,0.87,0.64,-0.44,-0.39,11.49,93.8,-89
5901,327.184,0.89,0.83,0.64,-0.44,-0.29,11.49,93.8,-89
5902,327.268,0.85,0.83,0.69,-0.39,-0.24,11.49,93.8,-89
5904,327.452,1.01,0.74,0.59,-0.44,0.00,11.47,94.2,-95
5905,327.552,1.00,0.67,0.54,-0.39,0.05,11.45,94.2,-95
5906,327.652,1.05,0.78,0.64,-0.44,0.05,11.43,94.2,-95
5907,327.752,1.05,0.77,0.59,-0.49,0.05,11.41,94.2,-95
5908,327.852,0.96,0.81,0.64,-0.49,0.10,11.39,94.2,-95
5910,328.036,1.05,0.93,0.78,-0.49,-0.10,11.87,94.5,-95
5911,328.120,0.97,0.92,0.78,-0.44,-0.20,11.28,94.5,-95
5912,328.203,0.92,0.88,0.78,-0.39,-0.10,11.28,94.5,-95
5913,328.287,0.92,0.80,0.69,-0.39,-0.15,11.28,94.5,-95
5914,328.370,0.88,0.69,0.59,-0.34,-0.10,11.28,94.5,-95
5916,328.537,0.90,0.62,0.54,-0.10,-0.29,11.77,94.8,-90
5917,328.621,0.85,0.84,0.64,-0.10,-0.54,11.30,94.8,-90
5918,328.704,0.87,0.73,0.69,-0.15,-0.20,11.32,94.8,-90
5919,328.788,0.87,0.85,0.74,-0.34,-0.24,11.33,94.8,-90
5920,328.871,0.85,1.02,0.83,-0.59,0.00,11.35,94.8,-90
5921,328.955,0.88,0.97,0.83,-0.49,-0.05,11.37,94.8,-90
5922,329.039,0.94,0.95,0.78,-0.29,-0.44,11.49,95.1,-86
5923,329.122,1.03,0.94,0.78,-0.34,-0.39,11.49,95.1,-86
5924,329.206,0.97,0.99,0.78,-0.34,-0.49,11.49,95.1,-86
5925,329.289,0.97,1.02,0.78,-0.44,-0.49,11.49,95.1,-86
5926,329.373,1.02,0.94,0.69,-0.34,-0.54,11.49,95.1,-86
5928,329.557,1.02,0.62,0.59,-0.05,-0.20,11.47,95.4,-90
5929,329.657,0.96,0.67,0.64,-0.05,-0.20,11.45,95.4,-90
5930,329.757,0.92,0.76,0.74,-0.15,-0.15,11.43,95.4,-90
5931,329.857,0.92,0.86,0.78,-0.20,-0.29,11.41,95.4,-90
5932,329.957,0.90,0.97,0.83,-0.44,-0.24,11.39,95.4,-90
5934,330.141,0.91,0.85,0.64,-0.44,-0.34,11.87,95.7,-83
5935,330.225,0.87,1.08,0.88,-0.44,-0.44,11.28,95.7,-83
5936,330.308,0.87,1.07,0.88,-0.15,-0.59,11.28,95.7,-83
5937,330.392,0.87,0.88,0.74,0.00,-0.49,11.28,95.7,-83
5938,330.475,0.87,0.77,0.69,-0.05,-0.34,11.28,95.7,-83
5940,330.642,0.88,0.83,0.49,-0.20,-0.64,11.77,95.9,-81
5941,330.726,0.80,0.84,0.49,-0.24,-0.64,11.30,95.9,-81
5942,330.810,0.70,0.89,0.54,-0.15,-0.69,11.32,95.9,-81
5943,330.893,0.70,0.91,0.49,-0.20,-0.74,11.33,95.9,-81
5944,330.977,0.58,0.78,0.54,-0.15,-0.54,11.35,95.9,-81
5945,331.060,0.54,0.68,0.39,-0.15,-0.54,11.37,95.9,-81
5946,331.144,0.55,1.33,-0.34,-0.83,-0.98,11.49,96.2,-88
5947,331.227,0.45,1.39,-0.29,-0.83,-1.08,11.49,96.2,-88
5948,331.311,0.35,1.48,-0.24,-0.98,-1.08,11.49,96.2,-88
5949,331.394,0.35,1.31,-0.24,-0.83,-0.98,11.49,96.2,-88
5950,331.478,0.25,1.13,-0.34,-0.74,-0.78,11.49,96.2,-88
5952,331.662,0.25,1.09,0.00,-1.08,0.15,11.47,96.4,-82
5953,331.762,0.22,1.02,-0.20,-0.98,0.20,11.45,96.4,-82
5954,331.862,0.15,0.82,-0.34,-0.74,0.10,11.43,96.4,-82
5955,331.962,0.15,0.21,0.05,-0.20,0.05,11.41,96.4,-82
5956,332.062,0.02,0.82,-0.10,-0.74,0.34,11.39,96.4,-82
5958,332.246,0.10,0.70,0.29,0.00,0.64,11.37,96.6,-83
5959,332.330,0.10,0.68,0.24,0.00,0.64,11.37,96.6,-83
5960,332.413,0.04,0.59,0.24,0.00,0.54,11.37,96.6,-83
5961,332.497,0.04,0.64,0.24,0.00,0.59,11.37,96.6,-83
5962,332.580,-0.06,0.66,0.29,0.00,0.59,11.37,96.6,-83
5964,332.747,0.00,0.70,0.29,0.00,0.64,11.87,96.8,-89
5965,332.831,-0.01,0.67,0.20,0.00,0.64,11.28,96.8,-89
5966,332.914,0.08,0.69,0.34,-0.10,0.59,11.28,96.8,-89
5967,332.998,0.08,0.66,0.29,-0.05,0.59,11.28,96.8,-89
5968,333.081,0.06,0.75,0.29,0.00,0.69,11.28,96.8,-89
5970,333.249,0.18,0.82,0.34,0.10,0.74,11.78,97.0,-82
5971,333.332,0.12,0.64,0.24,0.05,0.59,11.30,97.0,-82
5972,333.416,0.06,0.69,0.24,0.10,0.64,11.32,97.0,-82
5973,333.499,0.06,0.81,0.34,0.05,0.74,11.34,97.0,-82
5974,333.583,0.02,0.72,0.20,0.10,0.69,11.35,97.0,-82
5975,333.666,0.01,0.64,0.24,0.10,0.59,11.37,97.0,-82
5976,333.750,0.04,0.70,0.29,0.05,0.64,11.49,97.2,-83
5977,333.834,-0.08,0.69,0.24,0.10,0.64,11.49,97.2,-83
5978,333.917,-0.02,0.79,0.29,0.05,0.74,11.49,97.2,-83
5979,334.001,-0.02,0.78,0.24,0.05,0.74,11.49,97.2,-83
5980,334.084,-0.09,0.79,0.29,0.05,0.74,11.49,97.2,-83
5982,334.268,0.07,0.68,0.24,0.05,0.64,11.47,97.3,-83
5983,334.368,0.09,0.64,0.24,0.05,0.59,11.45,97.3,-83
5984,334.468,0.06,0.64,0.24,0.05,0.59,11.43,97.3,-83
5985,334.569,0.06,0.70,0.29,0.05,0.64,11.41,97.3,-83
5986,334.669,-0.02,0.75,0.29,0.10,0.69,11.39,97.3,-83
5988,334.853,0.11,0.67,0.20,0.05,0.64,11.37,97.5,-83
5989,334.936,0.08,0.68,0.24,0.05,0.64,11.37,97.5,-83
5990,335.020,0.02,0.68,0.24,0.05,0.64,11.37,97.5,-83
5991,335.103,0.02,0.79,0.29,0.05,0.74,11.37,97.5,-83
5992,335.187,0.00,0.68,0.24,0.05,0.64,11.37,97.5,-83
5994,335.354,0.05,0.66,0.29,0.05,0.59,11.39,97.6,-82
5995,335.437,0.02,0.74,0.24,0.10,0.69,11.41,97.6,-82
5996,335.521,0.02,0.75,0.29,0.05,0.69,11.43,97.6,-82
5997,335.604,0.02,0.59,0.24,0.05,0.54,11.45,97.6,-82
5998,335.688,0.02,0.72,0.20,0.05,0.69,11.47,97.6,-82
5999,335.771,0.00,0.75,0.29,0.05,0.69,10.98,97.6,-82
6000,335.855,0.10,0.70,0.29,0.05,0.64,11.58,97.8,-82
6001,335.939,0.08,0.72,0.20,0.05,0.69,11.58,97.8,-82
6002,336.022,0.05,0.79,0.29,0.05,0.74,11.58,97.8,-82
6003,336.106,0.05,0.73,0.24,0.05,0.69,11.58,97.8,-82
6004,336.189,-0.03,0.68,0.24,0.05,0.64,11.07,97.8,-82
6006,336.373,0.04,0.68,0.24,0.05,0.64,11.57,97.9,-81
6007,336.473,0.11,0.67,0.20,0.10,0.64,11.55,97.9,-81
6008,336.573,0.02,0.68,0.24,0.05,0.64,11.53,97.9,-81
6009,336.673,0.02,0.77,0.34,0.05,0.69,11.51,97.9,-81
6010,336.774,-0.07,0.70,0.29,0.05,0.64,11.49,97.9,-81
6012,336.957,0.02,0.73,0.24,0.05,0.69,11.37,98.0,-84
6013,337.041,-0.02,0.70,0.29,0.05,0.64,11.37,98.0,-84
6014,337.125,-0.03,0.75,0.29,0.05,0.69,11.37,98.0,-84
6015,337.208,-0.03,0.66,0.29,0.10,0.59,11.37,98.0,-84
6016,337.292,-0.05,0.75,0.29,0.00,0.69,11.37,98.0,-84
6018,337.459,0.11,0.75,0.29,0.05,0.69,11.39,98.1,-81
6019,337.542,0.08,0.73,0.24,0.05,0.69,11.41,98.1,-81
6020,337.626,0.09,0.60,0.24,0.10,0.54,11.43,98.1,-81
6021,337.709,0.09,0.68,0.24,0.05,0.64,11.45,98.1,-81
6022,337.793,0.05,0.68,0.24,0.05,0.64,11.47,98.1,-81
6023,337.876,0.02,0.67,0.20,0.05,0.64,10.98,98.1,-81
6024,337.960,0.07,0.72,0.20,0.05,0.69,11.58,98.3,-83
6025,338.044,0.06,0.70,0.29,0.05,0.64,11.58,98.3,-83
6026,338.127,-0.02,0.73,0.24,0.05,0.69,11.58,98.3,-83
6027,338.211,-0.02,0.73,0.34,0.05,0.64,11.58,98.3,-83
6028,338.294,-0.05,0.68,0.24,0.05,0.64,11.07,98.3,-83
6030,338.478,-0.04,0.70,0.29,0.05,0.64,11.57,98.4,-83
6031,338.578,-0.05,0.68,0.24,0.05,0.64,11.55,98.4,-83
6032,338.678,0.03,0.75,0.29,0.05,0.69,11.53,98.4,-83
6033,338.778,0.03,0.72,0.20,0.10,0.69,11.51,98.4,-83
6034,338.879,0.01,0.68,0.24,0.00,0.64,11.49,98.4,-83
6036,339.062,-0.01,0.70,0.29,0.00,0.64,11.37,98.5,-82
6037,339.146,0.02,0.74,0.24,0.10,0.69,11.37,98.5,-82
6038,339.229,0.04,0.69,0.24,0.10,0.64,11.37,98.5,-82
6039,339.313,0.04,0.75,0.29,0.05,0.69,11.37,98.5,-82
6040,339.397,-0.01,0.75,0.29,0.05,0.69,11.37,98.5,-82
6042,339.564,0.04,0.68,0.24,0.05,0.64,11.39,98.5,-81
6043,339.647,0.02,0.72,0.20,0.10,0.69,11.41,98.5,-81
6044,339.731,0.02,0.78,0.24,0.05,0.74,11.43,98.5,-81
6045,339.814,0.02,0.70,0.29,0.05,0.64,11.45,98.5,-81
6046,339.898,-0.07,0.73,0.24,0.05,0.69,11.47,98.5,-81
6047,339.981,0.00,0.70,0.29,0.05,0.64,10.98,98.5,-81
6048,340.065,0.03,0.68,0.24,0.05,0.64,11.59,98.6,-83
6049,340.148,-0.02,0.73,0.24,0.05,0.69,11.59,98.6,-83
6050,340.231,-0.05,0.72,0.20,0.10,0.69,11.59,98.6,-83
6051,340.315,-0.05,0.68,0.24,0.05,0.64,11.59,98.6,-83
6052,340.398,-0.03,0.72,0.20,0.10,0.69,11.07,98.6,-83
6054,340.582,-0.01,0.75,0.29,0.05,0.69,11.57,98.7,-89
6055,340.682,0.02,0.68,0.24,0.05,0.64,11.55,98.7,-89
6056,340.782,0.01,0.67,0.20,0.05,0.64,11.53,98.7,-89
6057,340.882,0.01,0.79,0.29,0.05,0.74,11.51,98.7,-89
6060,341.166,-0.01,0.66,0.29,0.05,0.59,11.87,98.8,-83
6061,341.250,-0.03,0.75,0.29,0.05,0.69,11.28,98.8,-83
6062,341.333,-0.12,0.75,0.29,0.05,0.69,11.28,98.8,-83
6063,341.417,-0.12,0.64,0.24,0.10,0.59,11.28,98.8,-83
6064,341.501,-0.09,0.73,0.24,0.05,0.69,11.28,98.8,-83
6066,341.668,-0.08,0.64,0.24,0.05,0.59,11.78,98.9,-80
6067,341.751,-0.10,0.73,0.24,0.05,0.69,11.30,98.9,-80
6068,341.835,-0.04,0.68,0.24,0.05,0.64,11.32,98.9,-80
6069,341.918,-0.04,0.70,0.29,0.05,0.64,11.34,98.9,-80
6070,342.002,-0.06,0.64,0.24,0.05,0.59,11.35,98.9,-80
6071,342.085,-0.09,0.72,0.20,0.05,0.69,11.37,98.9,-80
6072,342.169,-0.03,0.70,0.29,0.05,0.64,11.49,98.9,-81
6073,342.252,0.02,0.73,0.24,0.05,0.69,11.49,98.9,-81
6074,342.336,0.05,0.75,0.29,0.05,0.69,11.49,98.9,-81
6075,342.419,0.05,0.69,0.24,0.10,0.64,11.49,98.9,-81
6076,342.503,0.01,0.70,0.29,0.05,0.64,11.49,98.9,-81
6078,342.687,-0.05,0.70,0.29,0.05,0.64,11.47,99.0,-81
6079,342.787,-0.01,0.68,0.24,0.05,0.64,11.45,99.0,-81
6080,342.887,0.02,0.66,0.29,0.05,0.59,11.43,99.0,-81
6081,342.987,0.02,0.70,0.29,0.05,0.64,11.41,99.0,-81
6082,343.087,-0.09,0.70,0.29,0.05,0.64,11.39,99.0,-81
6084,343.271,-0.07,0.75,0.29,0.05,0.69,11.37,99.0,-84
6085,343.355,-0.13,0.66,0.29,0.05,0.59,11.37,99.0,-84
6086,343.438,-0.20,0.73,0.24,0.05,0.69,11.37,99.0,-84
6087,343.522,-0.20,0.75,0.29,0.05,0.69,11.37,99.0,-84
6088,343.605,-0.23,0.71,0.29,0.10,0.64,11.37,99.0,-84
6090,343.772,-0.08,0.75,0.29,0.05,0.69,11.87,99.1,-81
6091,343.856,-0.09,0.73,0.24,0.05,0.69,11.28,99.1,-81
6092,343.940,0.01,0.70,0.29,0.05,0.64,11.28,99.1,-81
6093,344.023,0.01,0.75,0.29,0.00,0.69,11.28,99.1,-81
6094,344.107,-0.13,0.73,0.24,0.05,0.69,11.28,99.1,-81
6095,344.190,-0.09,0.69,0.24,0.10,0.64,11.28,99.1,-81
6096,344.274,-0.01,0.73,0.24,0.05,0.69,11.39,99.2,-83
6097,344.357,-0.04,0.68,0.24,0.05,0.64,11.41,99.2,-83
6098,344.441,-0.12,0.73,0.24,0.05,0.69,11.43,99.2,-83
6099,344.524,-0.12,0.70,0.24,0.15,0.64,11.45,99.2,-83
6100,344.608,-0.14,0.64,0.24,0.10,0.59,11.47,99.2,-83
6102,344.792,-0.09,0.70,0.29,0.05,0.64,11.47,99.2,-84
6103,344.892,-0.11,0.68,0.24,0.05,0.64,11.45,99.2,-84
6104,344.992,-0.11,0.73,0.24,0.05,0.69,11.43,99.2,-84
6105,345.092,-0.11,0.73,0.24,0.05,0.69,11.41,99.2,-84
6106,345.192,-0.17,0.70,0.29,0.05,0.64,11.39,99.2,-84
6108,345.376,-0.12,0.72,0.20,0.10,0.69,11.37,99.2,-90
6109,345.460,-0.10,0.78,0.24,0.05,0.74,11.37,99.2,-90
6110,345.543,-0.04,0.66,0.29,0.05,0.59,11.37,99.2,-90
6111,345.627,-0.04,0.70,0.29,0.00,0.64,11.37,99.2,-90
6112,345.710,-0.08,0.68,0.24,0.05,0.64,11.37,99.2,-90
6114,345.877,0.04,0.73,0.24,0.05,0.69,11.87,99.3,-89
6115,345.961,0.02,0.68,0.24,0.05,0.64,11.28,99.3,-89
6116,346.044,0.01,0.68,0.24,0.05,0.64,11.28,99.3,-89
6117,346.128,0.01,0.72,0.20,0.05,0.69,11.28,99.3,-89
6118,346.212,-0.06,0.70,0.29,0.05,0.64,11.28,99.3,-89
6120,346.379,0.02,0.70,0.29,0.05,0.64,11.78,99.3,-85
6121,346.462,0.00,0.68,0.24,0.05,0.64,11.30,99.3,-85
6122,346.546,-0.03,0.73,0.24,0.05,0.69,11.32,99.3,-85
6123,346.629,-0.03,0.73,0.24,0.05,0.69,11.34,99.3,-85
6124,346.713,-0.07,0.75,0.29,0.05,0.69,11.36,99.3,-85
6125,346.797,-0.07,0.66,0.29,0.05,0.59,11.37,99.3,-85
6126,346.880,-0.01,0.68,0.24,0.05,0.64,11.49,99.4,-83
6127,346.964,-0.02,0.64,0.24,0.10,0.59,11.49,99.4,-83
6128,347.047,-0.02,0.68,0.24,0.05,0.64,11.49,99.4,-83
6129,347.131,-0.02,0.70,0.29,0.05,0.64,11.49,99.4,-83
6130,347.214,-0.11,0.73,0.24,0.05,0.69,11.49,99.4,-83
6132,347.398,-0.09,0.70,0.29,0.05,0.64,11.47,99.4,-79
6133,347.498,-0.05,0.73,0.24,0.05,0.69,11.45,99.4,-79
6134,347.598,0.00,0.70,0.29,0.05,0.64,11.43,99.4,-79
6135,347.698,0.00,0.79,0.29,0.05,0.74,11.41,99.4,-79
6136,347.799,-0.06,0.70,0.29,0.05,0.64,11.39,99.4,-79
6138,347.982,-0.04,0.68,0.24,0.05,0.64,11.87,99.4,-82
6139,348.066,-0.02,0.73,0.24,0.05,0.69,11.28,99.4,-82
6140,348.149,-0.11,0.68,0.24,0.05,0.64,11.28,99.4,-82
6141,348.233,-0.11,0.64,0.24,0.10,0.59,11.28,99.4,-82
6142,348.316,-0.16,0.66,0.29,0.05,0.59,11.28,99.4,-82
6144,348.484,-0.04,0.75,0.29,0.05,0.69,11.78,99.5,-83
6145,348.567,-0.06,0.68,0.24,0.05,0.64,11.30,99.5,-83
6146,348.651,-0.03,0.75,0.29,0.00,0.69,11.32,99.5,-83
6147,348.734,-0.03,0.66,0.29,0.05,0.59,11.34,99.5,-83
6148,348.818,-0.11,0.75,0.29,0.05,0.69,11.36,99.5,-83
6149,348.901,-0.10,0.70,0.29,0.05,0.64,11.37,99.5,-83
6150,348.985,-0.03,0.68,0.24,0.05,0.64,11.49,99.5,-82
6151,349.068,0.01,0.75,0.29,0.05,0.69,11.49,99.5,-82
6152,349.152,0.05,0.75,0.29,0.05,0.69,11.49,99.5,-82
6153,349.235,0.05,0.64,0.24,0.10,0.59,11.49,99.5,-82
6154,349.319,0.04,0.74,0.24,0.10,0.69,11.49,99.5,-82
6156,349.503,0.10,0.68,0.24,0.05,0.64,11.47,99.5,-82
6157,349.603,0.06,0.73,0.24,0.05,0.69,11.45,99.5,-82
6158,349.703,0.07,0.75,0.29,0.05,0.69,11.43,99.5,-82
6159,349.803,0.07,0.75,0.29,0.05,0.69,11.41,99.5,-82
6160,349.903,0.01,0.68,0.24,0.05,0.64,11.39,99.5,-82
6162,350.087,0.10,0.71,0.29,0.10,0.64,11.87,99.6,-81
6163,350.171,0.11,0.70,0.29,0.05,0.64,11.28,99.6,-81
6164,350.254,0.09,0.69,0.24,0.10,0.64,11.28,99.6,-81
6165,350.338,0.09,0.74,0.24,0.10,0.69,11.28,99.6,-81
6166,350.421,0.07,0.73,0.34,0.05,0.64,11.28,99.6,-81
6168,350.588,0.13,0.68,0.24,0.05,0.64,11.78,99.6,-82
6169,350.672,0.03,0.75,0.29,0.05,0.69,11.30,99.6,-82
6170,350.755,0.00,0.73,0.24,0.05,0.69,11.32,99.6,-82
6171,350.839,0.00,0.64,0.24,0.05,0.59,11.34,99.6,-82
6172,350.923,-0.02,0.75,0.29,0.05,0.69,11.35,99.6,-82
6173,351.006,-0.08,0.78,0.24,0.05,0.74,10.98,99.6,-82
6174,351.090,0.00,0.68,0.24,0.05,0.64,11.59,99.6,-82
6175,351.173,0.06,0.75,0.29,0.05,0.69,11.59,99.6,-82
6176,351.257,0.04,0.73,0.24,0.05,0.69,11.59,99.6,-82
6177,351.340,0.04,0.73,0.24,0.05,0.69,11.59,99.6,-82
6178,351.424,-0.02,0.70,0.29,0.05,0.64,11.07,99.6,-82
6180,351.608,0.03,0.70,0.29,0.05,0.64,11.57,99.6,-83
6181,351.708,0.05,0.75,0.29,0.05,0.69,11.55,99.6,-83
6182,351.808,0.01,0.75,0.29,0.05,0.69,11.53,99.6,-83
6183,351.908,0.01,0.75,0.29,0.05,0.69,11.51,99.6,-83
6184,352.008,-0.05,0.73,0.24,0.00,0.69,11.49,99.6,-83
6186,352.192,0.08,0.68,0.24,0.05,0.64,11.37,99.7,-83
6187,352.276,0.04,0.71,0.29,0.10,0.64,11.37,99.7,-83
6188,352.359,0.00,0.73,0.24,0.05,0.69,11.37,99.7,-83
6189,352.443,0.00,0.73,0.24,0.05,0.69,11.37,99.7,-83
6190,352.526,-0.04,0.71,0.29,0.10,0.64,11.37,99.7,-83
6192,352.693,0.04,0.73,0.24,0.05,0.69,11.39,99.7,-83
6193,352.777,0.00,0.75,0.29,0.05,0.69,11.41,99.7,-83
6194,352.860,-0.06,0.80,0.29,0.10,0.74,11.43,99.7,-83
6195,352.944,-0.06,0.70,0.29,0.05,0.64,11.45,99.7,-83
6196,353.027,-0.07,0.69,0.24,0.10,0.64,11.47,99.7,-83
6197,353.111,-0.01,0.69,0.24,0.10,0.64,10.98,99.7,-83
6198,353.194,0.04,0.69,0.24,0.10,0.64,11.59,99.7,-83
6199,353.278,0.03,0.75,0.29,0.05,0.69,11.59,99.7,-83
6200,353.362,0.00,0.67,0.20,0.05,0.64,11.59,99.7,-83
6201,353.445,0.00,0.71,0.29,0.10,0.64,11.59,99.7,-83
6202,353.529,-0.06,0.73,0.24,0.05,0.69,11.07,99.7,-83
6204,353.712,0.05,0.68,0.24,0.05,0.64,11.57,99.7,-84
6205,353.813,-0.01,0.68,0.24,0.05,0.64,11.55,99.7,-84
6206,353.913,0.02,0.69,0.24,0.10,0.64,11.53,99.7,-84
6207,354.013,0.02,0.70,0.29,0.05,0.64,11.51,99.7,-84
6208,354.113,0.01,0.74,0.24,0.10,0.69,11.49,99.7,-84
6210,354.297,0.06,0.64,0.24,0.05,0.59,11.37,99.7,-86
6211,354.380,0.03,0.71,0.29,0.10,0.64,11.37,99.7,-86
6212,354.464,0.05,0.73,0.24,0.05,0.69,11.37,99.7,-86
6213,354.547,0.05,0.79,0.29,0.05,0.74,11.37,99.7,-86
6214,354.631,-0.07,0.70,0.29,0.00,0.64,11.37,99.7,-86
6216,354.798,0.06,0.68,0.24,0.05,0.64,11.39,99.7,-86
6217,354.881,0.02,0.68,0.24,0.05,0.64,11.41,99.7,-86
6218,354.965,0.09,0.64,0.24,0.05,0.59,11.43,99.7,-86
6219,355.048,0.09,0.69,0.24,0.10,0.64,11.45,99.7,-86
6220,355.131,0.08,0.70,0.29,0.05,0.64,11.47,99.7,-86
6222,355.298,0.07,0.75,0.29,0.10,0.69,11.49,99.8,-91
6223,355.382,0.02,0.73,0.24,0.05,0.69,11.49,99.8,-91
6224,355.465,0.01,0.75,0.29,0.00,0.69,11.49,99.8,-91
6225,355.549,0.01,0.75,0.29,0.10,0.69,11.49,99.8,-91
6226,355.632,-0.07,0.71,0.20,0.00,0.69,11.49,99.8,-91
6228,355.816,-0.09,0.72,0.34,0.00,0.64,11.47,99.8,-84
6229,355.916,-0.16,0.71,0.29,0.10,0.64,11.45,99.8,-84
6230,356.016,-0.24,0.70,0.29,0.05,0.64,11.43,99.8,-84
6231,356.117,-0.24,0.66,0.29,0.05,0.59,11.41,99.8,-84
6232,356.217,-0.21,0.70,0.29,0.05,0.64,11.39,99.8,-84
6234,356.401,-0.10,0.75,0.29,0.00,0.69,11.38,99.8,-82
6235,356.484,-0.11,0.75,0.29,0.05,0.69,11.38,99.8,-82
6236,356.568,-0.10,0.66,0.29,0.00,0.59,11.38,99.8,-82
6237,356.651,-0.10,0.69,0.24,0.10,0.64,11.38,99.8,-82
6238,356.735,-0.10,0.73,0.24,0.05,0.69,11.38,99.8,-82
6240,356.902,0.00,0.70,0.29,0.05,0.64,11.88,99.8,-84
6241,356.985,-0.01,0.75,0.29,0.05,0.69,11.28,99.8,-84
6242,357.069,-0.03,0.75,0.29,0.05,0.69,11.28,99.8,-84
6243,357.152,-0.03,0.66,0.29,0.10,0.59,11.28,99.8,-84
6244,357.236,-0.01,0.75,0.29,0.05,0.69,11.28,99.8,-84
6245,357.319,0.03,0.70,0.29,0.05,0.64,11.28,99.8,-84
6246,357.403,0.15,0.73,0.34,0.05,0.64,11.39,99.8,-76
6247,357.487,0.10,0.73,0.24,0.05,0.69,11.41,99.8,-76
6248,357.570,0.12,0.68,0.24,0.05,0.64,11.43,99.8,-76
6249,357.654,0.12,0.75,0.29,0.05,0.69,11.45,99.8,-76
6250,357.737,0.00,0.69,0.24,0.10,0.64,11.47,99.8,-76
6252,357.921,0.09,0.70,0.29,0.05,0.64,11.47,99.8,-73
6253,358.021,0.05,0.73,0.24,0.05,0.69,11.45,99.8,-73
6254,358.121,0.00,0.73,0.24,0.05,0.69,11.43,99.8,-73
6255,358.221,0.00,0.69,0.24,0.10,0.64,11.41,99.8,-73
6256,358.322,-0.12,0.70,0.29,0.05,0.64,11.39,99.8,-73
6258,358.505,-0.03,0.70,0.29,0.05,0.64,11.38,99.8,-77
6259,358.589,-0.04,0.68,0.24,0.05,0.64,11.38,99.8,-77
6260,358.672,-0.06,0.73,0.24,0.05,0.69,11.38,99.8,-77
6261,358.756,-0.06,0.75,0.29,0.00,0.69,11.38,99.8,-77
6262,358.839,-0.04,0.68,0.24,0.05,0.64,11.38,99.8,-77
6264,359.006,0.13,0.70,0.29,0.05,0.64,11.88,99.8,-77
6265,359.090,0.07,0.75,0.29,0.05,0.69,11.28,99.8,-77
6266,359.173,0.00,0.75,0.29,0.05,0.69,11.28,99.8,-77
6267,359.257,0.00,0.70,0.29,0.05,0.64,11.28,99.8,-77
6268,359.341,-0.01,0.75,0.29,0.05,0.69,11.28,99.8,-77
6270,359.508,0.00,0.73,0.24,0.05,0.69,11.78,99.9,-76
6271,359.591,-0.03,0.75,0.29,0.10,0.69,11.30,99.9,-76
6272,359.675,0.03,0.69,0.24,0.10,0.64,11.32,99.9,-76
6273,359.758,0.03,0.73,0.24,0.05,0.69,11.34,99.9,-76
6274,359.842,0.04,0.70,0.29,0.05,0.64,11.36,99.9,-76
6275,359.925,0.03,0.71,0.29,0.10,0.64,11.37,99.9,-76
6276,360.009,0.04,0.69,0.24,0.10,0.64,11.49,99.9,-74
6277,360.093,0.04,0.73,0.24,0.05,0.69,11.49,99.9,-74
6278,360.176,0.07,0.70,0.29,0.05,0.64,11.49,99.9,-74
6279,360.260,0.07,0.69,0.24,0.10,0.64,11.49,99.9,-74
6280,360.343,0.04,0.75,0.29,0.05,0.69,11.49,99.9,-74
6282,360.527,0.05,0.73,0.24,0.00,0.69,11.47,99.9,-80
6283,360.627,-0.03,0.73,0.24,0.05,0.69,11.45,99.9,-80
6284,360.727,-0.08,0.75,0.29,0.05,0.69,11.43,99.9,-80
6285,360.827,-0.08,0.68,0.24,0.05,0.64,11.41,99.9,-80
6286,360.927,-0.09,0.73,0.24,0.05,0.69,11.39,99.9,-80
6288,361.111,-0.06,0.75,0.29,0.05,0.69,11.88,99.9,-75
6289,361.195,-0.12,0.71,0.29,0.10,0.64,11.28,99.9,-75
6290,361.278,-0.11,0.73,0.24,0.05,0.69,11.28,99.9,-75
6291,361.362,-0.11,0.68,0.24,0.05,0.64,11.28,99.9,-75
6292,361.445,-0.11,0.79,0.29,0.05,0.74,11.28,99.9,-75
6294,361.612,-0.02,0.75,0.29,0.05,0.69,11.78,99.9,-74
6295,361.696,-0.05,0.73,0.24,0.05,0.69,11.30,99.9,-74
6296,361.779,0.00,0.75,0.29,0.05,0.69,11.32,99.9,-74
6297,361.863,0.00,0.68,0.24,0.05,0.64,11.34,99.9,-74
6298,361.946,-0.07,0.64,0.24,0.05,0.59,11.36,99.9,-74
6299,362.030,0.00,0.69,0.24,0.10,0.64,11.38,99.9,-74
6300,362.114,0.05,0.70,0.29,0.05,0.64,11.49,99.9,-75
6301,362.197,0.06,0.77,0.24,0.00,0.74,11.49,99.9,-75
6302,362.281,0.03,0.78,0.24,0.05,0.74,11.49,99.9,-75
6303,362.364,0.03,0.69,0.24,0.10,0.64,11.49,99.9,-75
6304,362.448,0.03,0.75,0.29,0.05,0.69,11.49,99.9,-75
6306,362.631,0.15,0.68,0.24,0.00,0.64,11.47,99.9,-88
6307,362.732,0.12,0.75,0.29,0.05,0.69,11.45,99.9,-88
6308,362.832,0.07,0.75,0.29,0.10,0.69,11.43,99.9,-88
6309,362.932,0.07,0.64,0.24,0.05,0.59,11.41,99.9,-88
6310,363.032,0.06,0.74,0.24,0.10,0.69,11.39,99.9,-88
6312,363.216,-0.01,0.75,0.29,0.05,0.69,11.88,99.9,-75
6313,363.299,-0.05,0.73,0.24,0.05,0.69,11.28,99.9,-75
6314,363.383,-0.01,0.68,0.24,0.05,0.64,11.28,99.9,-75
6315,363.466,-0.01,0.73,0.24,0.05,0.69,11.28,99.9,-75
6316,363.550,-0.08,0.67,0.20,0.05,0.64,11.28,99.9,-75
6318,363.717,-0.01,0.73,0.24,0.05,0.69,11.78,99.9,-82
6319,363.800,-0.01,0.75,0.29,0.05,0.69,11.30,99.9,-82
6320,363.884,0.00,0.69,0.24,0.10,0.64,11.32,99.9,-82
6321,363.968,0.00,0.73,0.24,0.05,0.69,11.34,99.9,-82
6322,364.051,-0.02,0.75,0.29,0.05,0.69,11.36,99.9,-82
6323,364.135,-0.09,0.75,0.29,0.10,0.69,11.38,99.9,-82
6324,364.218,0.00,0.73,0.24,0.05,0.69,11.49,99.9,-80
6325,364.302,0.01,0.69,0.24,0.10,0.64,11.49,99.9,-80
6326,364.385,0.06,0.70,0.29,0.05,0.64,11.49,99.9,-80
6327,364.469,0.06,0.75,0.29,0.05,0.69,11.49,99.9,-80
6328,364.552,0.05,0.67,0.20,0.05,0.64,11.49,99.9,-80
6330,364.736,0.14,0.70,0.29,0.05,0.64,11.47,99.9,-76
6331,364.836,0.08,0.73,0.24,0.05,0.69,11.45,99.9,-76
6332,364.936,-0.04,0.75,0.29,0.05,0.69,11.43,99.9,-76
6333,365.037,-0.04,0.68,0.24,0.05,0.64,11.41,99.9,-76
6334,365.137,-0.09,0.77,0.34,0.05,0.69,11.39,99.9,-76
6336,365.320,-0.07,0.70,0.29,0.05,0.64,11.37,99.9,-76
6337,365.404,-0.06,0.68,0.24,0.05,0.64,11.37,99.9,-76
6338,365.488,0.03,0.75,0.29,0.05,0.69,11.37,99.9,-76
6339,365.571,0.03,0.68,0.24,0.05,0.64,11.37,99.9,-76
6340,365.655,0.06,0.73,0.24,0.05,0.69,11.37,99.9,-76
6342,365.822,0.04,0.70,0.29,0.00,0.64,11.39,99.9,-74
6343,365.905,-0.06,0.73,0.24,0.05,0.69,11.41,99.9,-74
6344,365.989,-0.05,0.70,0.29,0.05,0.64,11.43,99.9,-74
6345,366.072,-0.05,0.62,0.29,0.05,0.54,11.45,99.9,-74
6346,366.156,-0.06,0.68,0.24,0.05,0.64,11.47,99.9,-74
6347,366.240,-0.03,0.75,0.29,0.05,0.69,10.98,99.9,-74
6348,366.323,-0.04,0.75,0.29,0.05,0.69,11.59,99.9,-76
6349,366.407,-0.09,0.64,0.24,0.10,0.59,11.59,99.9,-76
6350,366.490,-0.06,0.73,0.24,0.05,0.69,11.59,99.9,-76
6351,366.574,-0.06,0.79,0.29,0.05,0.74,11.59,99.9,-76
6352,366.657,-0.11,0.70,0.29,0.05,0.64,11.07,99.9,-76
6354,366.841,0.04,0.70,0.29,0.00,0.64,11.57,99.9,-73
6355,366.941,0.04,0.79,0.29,0.05,0.74,11.55,99.9,-73
6356,367.041,-0.06,0.74,0.24,0.10,0.69,11.53,99.9,-73
6357,367.141,-0.06,0.74,0.24,0.10,0.69,11.51,99.9,-73
6358,367.241,-0.09,0.75,0.39,0.05,0.64,11.49,99.9,-73
6360,367.425,-0.01,0.73,0.24,0.05,0.69,11.37,99.9,-72
6361,367.509,-0.03,0.68,0.24,0.05,0.64,11.37,99.9,-72
6362,367.592,-0.08,0.70,0.29,0.05,0.64,11.37,99.9,-72
6363,367.676,-0.08,0.68,0.24,0.05,0.64,11.37,99.9,-72
6364,367.759,-0.14,0.68,0.24,0.05,0.64,11.37,99.9,-72
6366,367.926,-0.01,0.64,0.24,0.05,0.59,11.39,99.9,-74
6367,368.010,-0.05,0.73,0.34,0.05,0.64,11.41,99.9,-74
6368,368.093,0.01,0.78,0.24,0.05,0.74,11.43,99.9,-74
6369,368.177,0.01,0.72,0.20,0.05,0.69,11.45,99.9,-74
6370,368.260,-0.07,0.69,0.24,0.10,0.64,11.47,99.9,-74
6371,368.344,0.06,0.74,0.24,0.10,0.69,10.98,99.9,-74
6372,368.427,0.13,0.70,0.29,0.05,0.64,11.59,99.9,-75
6373,368.511,0.10,0.69,0.24,0.10,0.64,11.59,99.9,-75
6374,368.594,0.13,0.68,0.24,0.05,0.64,11.59,99.9,-75
6375,368.678,0.13,0.75,0.29,0.00,0.69,11.59,99.9,-75
6376,368.762,0.13,0.68,0.24,0.05,0.64,11.07,99.9,-75
6378,368.945,0.23,0.68,0.24,-0.05,0.64,11.57,100.0,-81
6379,369.045,0.18,0.78,0.05,-0.24,0.74,11.55,100.0,-81
6380,369.146,0.15,1.00,0.34,0.15,0.93,11.53,100.0,-81
6381,369.246,0.15,0.80,0.24,0.54,0.54,11.51,100.0,-81
6382,369.346,0.12,0.79,0.39,0.24,0.64,10.98,100.0,-81
6384,369.530,0.07,1.06,0.39,0.98,-0.05,11.47,100.0,-77
6385,369.613,0.06,1.04,0.34,0.98,0.10,11.47,100.0,-77
6386,369.697,0.06,1.14,0.34,1.08,0.10,11.47,100.0,-77
6387,369.780,0.06,1.09,0.34,1.03,0.05,11.47,100.0,-77
6390,370.031,0.14,0.95,0.44,0.83,0.10,11.88,100.0,-71
6391,370.114,0.11,0.91,0.34,0.83,0.10,11.28,100.0,-71
6392,370.198,0.15,0.99,0.34,0.93,0.05,11.28,100.0,-71
6393,370.281,0.15,1.06,0.39,0.98,0.00,11.28,100.0,-71
6394,370.365,0.14,0.98,0.29,0.93,0.05,11.28,100.0,-71
6395,370.448,0.17,1.08,0.34,1.03,0.00,11.28,100.0,-71
6396,370.532,0.20,0.92,0.88,0.10,0.24,11.39,100.0,-72
6397,370.615,0.13,0.67,0.29,-0.15,0.59,11.41,100.0,-72
6398,370.699,0.12,0.83,0.34,-0.20,0.74,11.43,100.0,-72
6399,370.783,0.12,0.83,0.39,-0.05,0.74,11.45,100.0,-72
6400,370.866,0.07,0.59,0.39,0.05,0.44,11.47,100.0,-72
6402,371.050,0.08,0.67,0.39,0.05,0.54,11.47,100.0,-70
6403,371.150,0.04,0.83,0.39,-0.05,0.74,11.45,100.0,-70
6404,371.250,0.06,0.79,0.39,-0.05,0.69,11.43,100.0,-70
6405,371.350,0.06,0.61,0.29,0.00,0.54,11.41,100.0,-70
6406,371.450,0.12,0.60,0.34,0.05,0.49,11.39,100.0,-70
6408,371.634,0.17,0.71,0.44,0.15,0.54,11.38,100.0,-82
6409,371.718,0.16,0.86,0.44,0.05,0.74,11.38,100.0,-82
6410,371.801,0.09,1.44,0.39,-0.74,1.18,11.38,100.0,-82
6411,371.885,0.09,0.69,0.39,-0.20,0.54,11.38,100.0,-82
6412,371.968,0.04,0.57,0.34,-0.10,0.44,11.38,100.0,-82
6414,372.135,0.15,3.50,0.15,-2.99,-1.81,11.87,100.0,-88
6415,372.219,0.14,1.67,0.24,-0.83,-1.42,11.28,100.0,-88
6416,372.302,0.18,1.37,0.15,-0.59,-1.22,11.28,100.0,-88
6417,372.386,0.18,1.25,0.20,-0.39,-1.18,11.28,100.0,-88
6418,372.469,0.07,1.06,0.24,-0.10,-1.03,11.28,100.0,-88
6420,372.636,0.07,1.14,0.15,1.13,-0.10,11.78,100.0,-97
6421,372.720,0.06,1.14,0.10,1.13,-0.10,11.30,100.0,-97
6422,372.804,0.04,1.15,0.15,1.13,-0.15,11.32,100.0,-97
6423,372.887,0.04,1.20,0.15,1.18,-0.20,11.34,100.0,-97
6424,372.971,0.03,1.15,0.15,1.13,-0.20,11.36,100.0,-97
6425,373.054,-0.06,1.09,0.15,1.08,0.00,11.38,100.0,-97
6426,373.138,0.02,1.16,0.20,1.13,-0.20,11.49,100.0,-87
6427,373.221,0.03,1.20,0.20,1.18,-0.10,11.49,100.0,-87
6428,373.305,0.08,1.19,0.15,1.18,-0.10,11.49,100.0,-87
6429,373.388,0.08,1.14,0.15,1.13,-0.05,11.49,100.0,-87
6430,373.472,0.01,1.24,0.10,1.22,-0.15,11.49,100.0,-87
6432,373.656,0.08,1.24,0.15,1.22,-0.10,11.47,100.0,-89
6433,373.756,0.04,1.23,0.10,1.22,-0.10,11.45,100.0,-89
6434,373.856,0.04,1.19,0.15,1.18,-0.10,11.43,100.0,-89
6435,373.956,0.04,1.24,0.15,1.22,-0.10,11.41,100.0,-89
6436,374.056,0.02,1.14,0.15,1.13,-0.10,11.39,100.0,-89
6438,374.240,0.00,1.24,0.10,1.22,-0.20,11.87,100.0,-85
6439,374.323,-0.05,1.20,0.20,1.18,-0.15,11.28,100.0,-85
6440,374.407,-0.03,1.14,0.10,1.13,-0.15,11.28,100.0,-85
6441,374.491,-0.03,1.09,0.15,1.08,-0.10,11.28,100.0,-85
6442,374.574,0.00,1.14,0.10,1.13,-0.10,11.28,100.0,-85
6444,374.741,0.00,1.16,0.10,1.13,-0.24,11.78,100.0,-90
6445,374.825,-0.09,1.21,0.15,1.18,-0.24,11.30,100.0,-90
6446,374.908,-0.14,1.15,0.15,1.13,-0.20,11.32,100.0,-90
6447,374.992,-0.14,1.23,0.15,1.18,-0.34,11.34,100.0,-90
6448,375.075,-0.14,1.22,0.15,1.18,-0.29,11.36,100.0,-90
6449,375.159,-0.08,1.22,0.15,1.18,-0.29,11.38,100.0,-90
6450,375.242,0.03,1.22,0.15,1.18,-0.29,11.49,100.0,-91
6451,375.326,0.00,1.22,0.10,1.18,-0.29,11.49,100.0,-91
6452,375.409,0.02,1.22,0.10,1.18,-0.29,11.49,100.0,-91
6453,375.493,0.02,1.20,0.10,1.18,-0.24,11.49,100.0,-91
6454,375.576,0.02,1.17,0.10,1.13,-0.29,11.49,100.0,-91
6456,375.760,0.02,1.20,0.10,1.13,-0.39,11.47,100.0,-93
6457,375.860,0.03,1.22,0.10,1.18,-0.29,11.45,100.0,-93
6458,375.960,0.07,1.16,0.10,1.13,-0.24,11.43,100.0,-93
6459,376.061,0.07,1.12,0.10,1.08,-0.29,11.41,100.0,-93
6460,376.161,0.00,1.23,0.15,1.18,-0.34,11.39,100.0,-93
6462,376.344,-0.10,1.22,0.10,1.18,-0.29,11.88,100.0,-95
6463,376.428,-0.10,1.17,0.10,1.13,-0.29,11.28,100.0,-95
6464,376.511,-0.06,1.19,0.15,1.13,-0.34,11.28,100.0,-95
6465,376.595,-0.06,1.26,0.10,1.22,-0.29,11.28,100.0,-95
6466,376.679,-0.03,1.19,0.15,1.13,-0.34,11.28,100.0,-95
6467,376.762,0.00,1.23,0.05,1.18,-0.34,11.28,100.0,-95
6468,376.846,-0.02,1.17,0.10,1.13,-0.29,10.79,100.0,-87
6469,376.929,-0.06,1.23,0.10,1.18,-0.34,10.81,100.0,-87
6470,377.013,-0.09,1.20,0.10,1.18,-0.24,10.83,100.0,-87
6471,377.096,-0.09,1.17,0.10,1.13,-0.29,10.85,100.0,-87
6472,377.180,-0.10,1.24,0.05,1.18,-0.39,10.87,100.0,-87
6473,377.263,-0.06,1.26,0.10,1.18,-0.44,10.98,94.5,-87
6480,377.446,-0.15,1.17,0.10,1.13,-0.29,10.87,94.5,-85
6481,377.630,-0.24,1.16,0.10,1.13,-0.24,10.76,94.5,-85
6482,377.813,-0.18,1.23,0.15,1.18,-0.34,10.65,94.5,-85
6483,377.996,-0.18,1.19,0.15,1.13,-0.34,10.55,94.5,-85
6484,378.180,-0.14,1.26,0.15,1.22,-0.24,10.53,94.8,-85
6485,378.363,-0.19,1.23,0.10,1.18,-0.34,10.43,94.8,-85
6486,378.446,-0.11,1.21,0.15,1.18,-0.24,10.43,94.8,-86
6487,378.530,-0.13,1.20,0.15,1.13,-0.39,10.43,94.8,-86
6488,378.613,-0.13,1.24,0.10,1.18,-0.39,10.43,94.8,-86
6489,378.697,-0.13,1.24,0.10,1.18,-0.39,11.01,95.1,-86
6490,378.780,-0.13,1.21,0.15,1.18,-0.24,10.43,95.1,-86
6491,378.864,-0.17,1.22,0.10,1.18,-0.29,10.43,95.1,-86
6492,378.948,-0.14,1.23,0.10,1.18,-0.34,10.43,95.1,-85
6493,379.031,-0.19,1.22,0.10,1.18,-0.29,10.43,95.1,-85
6494,379.115,-0.19,1.20,0.10,1.18,-0.24,11.01,95.4,-85
6495,379.198,-0.19,1.23,0.10,1.18,-0.34,10.53,95.4,-85
6496,379.282,-0.15,1.17,0.15,1.13,-0.29,10.55,95.4,-85
6497,379.365,-0.10,1.23,0.10,1.18,-0.34,10.57,95.4,-85
6498,379.449,-0.11,1.17,0.10,1.13,-0.29,10.59,95.4,-84
6499,379.532,-0.08,1.23,0.10,1.18,-0.34,10.60,95.4,-84
6500,379.616,-0.14,1.22,0.10,1.18,-0.29,10.71,95.7,-84
6501,379.699,-0.14,1.22,0.15,1.18,-0.29,10.71,95.7,-84
6502,379.783,-0.16,1.25,0.10,1.22,-0.24,10.71,95.7,-84
6503,379.866,-0.16,1.22,0.15,1.18,-0.29,10.71,95.7,-84
6504,379.966,-0.05,1.18,0.10,1.13,-0.34,10.27,95.7,-89
6505,380.067,-0.14,1.23,0.15,1.18,-0.34,10.85,95.9,-89
6506,380.167,-0.14,1.23,0.10,1.18,-0.34,10.83,95.9,-89
6507,380.267,-0.14,1.22,0.10,1.18,-0.29,10.82,95.9,-89
6508,380.367,-0.15,1.23,0.15,1.18,-0.34,10.80,95.9,-89
6509,380.467,-0.16,1.23,0.10,1.18,-0.34,10.78,95.9,-89
6510,380.551,-0.07,1.22,0.10,1.18,-0.29,10.78,96.1,-84
6511,380.634,-0.09,1.20,0.10,1.18,-0.24,10.78,96.1,-84
6512,380.718,-0.09,1.26,0.10,1.22,-0.29,10.78,96.1,-84
6513,380.801,-0.09,1.24,0.10,1.18,-0.39,10.78,96.1,-84
6514,380.885,-0.13,1.20,0.10,1.18,-0.24,10.78,96.1,-84
6516,381.052,-0.11,1.18,0.10,1.13,-0.34,10.80,96.4,-85
6517,381.135,-0.19,1.22,0.10,1.18,-0.29,10.82,96.4,-85
6518,381.219,-0.13,1.18,0.10,1.13,-0.34,10.83,96.4,-85
6519,381.303,-0.13,1.24,0.10,1.18,-0.39,10.85,96.4,-85
6520,381.386,-0.19,1.22,0.10,1.18,-0.29,10.87,96.4,-85
6521,381.470,-0.22,1.18,0.10,1.13,-0.34,10.37,96.4,-85
6522,381.553,-0.12,1.22,0.10,1.18,-0.29,10.98,96.6,-83
6523,381.637,-0.13,1.24,0.10,1.18,-0.39,10.98,96.6,-83
6524,381.720,-0.14,1.22,0.10,1.18,-0.29,10.98,96.6,-83
6525,381.804,-0.14,1.28,0.10,1.22,-0.34,10.98,96.6,-83
6526,381.887,-0.13,1.19,0.15,1.13,-0.34,10.46,96.6,-83
6528,382.071,-0.09,1.18,0.10,1.13,-0.34,10.96,96.8,-83
6529,382.171,-0.01,1.16,0.10,1.13,-0.24,10.94,96.8,-83
6530,382.271,-0.03,1.18,0.10,1.13,-0.34,10.93,96.8,-83
6531,382.371,-0.03,1.23,0.10,1.18,-0.34,10.91,96.8,-83
6532,382.472,-0.05,1.23,0.10,1.18,-0.34,10.37,96.8,-83
6534,382.655,0.04,1.16,0.10,1.13,-0.24,10.87,97.0,-85
6535,382.739,0.00,1.23,0.10,1.18,-0.34,10.87,97.0,-85
6536,382.822,-0.03,1.26,0.05,1.22,-0.29,10.87,97.0,-85
6537,382.906,-0.03,1.18,0.10,1.13,-0.34,10.87,97.0,-85
6538,382.990,0.05,1.22,0.10,1.18,-0.29,10.87,97.0,-85
6540,383.157,0.03,1.18,0.10,1.13,-0.34,10.78,97.2,-83
6541,383.240,0.02,1.22,0.10,1.18,-0.29,10.78,97.2,-83
6542,383.324,0.00,1.23,0.15,1.18,-0.34,10.78,97.2,-83
6543,383.407,0.00,1.17,0.10,1.13,-0.29,10.78,97.2,-83
6544,383.491,-0.06,1.22,0.10,1.18,-0.29,10.78,97.2,-83
6545,383.574,-0.06,1.25,0.15,1.18,-0.39,10.28,97.2,-83
6546,383.658,-0.02,1.23,0.10,1.18,-0.34,10.91,97.3,-88
6547,383.741,-0.04,1.20,0.10,1.18,-0.24,10.93,97.3,-88
6548,383.825,-0.07,1.23,0.10,1.18,-0.34,10.94,97.3,-88
6549,383.908,-0.07,1.22,0.10,1.18,-0.29,10.96,97.3,-88
6550,383.992,-0.10,1.17,0.10,1.13,-0.29,10.46,97.3,-88
6552,384.175,-0.12,1.17,0.10,1.13,-0.29,10.96,97.5,-86
6553,384.276,-0.13,1.23,0.10,1.18,-0.34,10.94,97.5,-86
6554,384.376,-0.09,1.23,0.10,1.18,-0.34,10.93,97.5,-86
6555,384.476,-0.09,1.20,0.15,1.13,-0.39,10.91,97.5,-86
6556,384.576,-0.06,1.17,0.15,1.13,-0.29,10.37,97.5,-86
6558,384.760,0.04,1.23,0.10,1.18,-0.34,10.87,97.6,-87
6559,384.843,-0.01,1.17,0.10,1.13,-0.29,10.87,97.6,-87
6560,384.926,-0.12,1.23,0.15,1.18,-0.34,10.87,97.6,-87
6561,385.010,-0.12,1.17,0.10,1.13,-0.29,10.87,97.6,-87
6562,385.093,-0.16,1.17,0.10,1.13,-0.29,10.87,97.6,-87
6564,385.260,-0.06,1.19,0.15,1.13,-0.34,10.78,97.8,-84
6565,385.343,-0.07,1.28,0.15,1.22,-0.34,10.78,97.8,-84
6566,385.427,-0.14,1.19,0.15,1.13,-0.34,10.78,97.8,-84
6567,385.510,-0.14,1.23,0.15,1.18,-0.34,10.78,97.8,-84
6568,385.594,-0.11,1.17,0.10,1.13,-0.29,10.78,97.8,-84
6569,385.677,-0.15,1.23,0.10,1.18,-0.34,10.28,97.8,-84
6570,385.761,-0.06,1.23,0.10,1.18,-0.34,10.91,97.9,-85
6571,385.845,-0.08,1.26,0.10,1.22,-0.29,10.93,97.9,-85
6572,385.928,-0.06,1.16,0.15,1.13,-0.24,10.94,97.9,-85
6573,386.012,-0.06,1.20,0.10,1.18,-0.24,10.96,97.9,-85
6574,386.095,-0.04,1.16,0.10,1.13,-0.24,10.46,97.9,-85
6576,386.279,0.04,1.21,0.05,1.18,-0.29,10.96,98.0,-84
6577,386.379,-0.01,1.17,0.15,1.13,-0.29,10.94,98.0,-84
6578,386.479,-0.02,1.22,0.10,1.18,-0.29,10.93,98.0,-84
6579,386.579,-0.02,1.21,0.15,1.18,-0.24,10.91,98.0,-84
6580,386.679,-0.07,1.23,0.15,1.18,-0.34,10.89,98.0,-84
6582,386.863,0.01,1.22,0.10,1.18,-0.29,11.38,98.1,-84
6583,386.947,-0.03,1.29,0.10,1.22,-0.39,11.38,98.1,-84
6584,387.030,-0.10,1.21,0.10,1.13,-0.44,11.38,98.1,-84
6585,387.114,-0.10,1.22,0.10,1.18,-0.29,11.38,98.1,-84
6586,387.197,-0.19,1.20,0.15,1.13,-0.39,11.38,98.1,-84
6588,387.364,-0.09,1.22,0.10,1.18,-0.29,11.29,98.2,-85
6589,387.448,-0.14,1.18,0.10,1.13,-0.34,11.40,98.2,-85
6590,387.531,-0.09,1.18,0.10,1.13,-0.34,11.51,98.2,-85
6591,387.615,-0.09,1.22,0.10,1.18,-0.29,11.63,98.2,-85
6592,387.698,-0.04,1.17,0.10,1.13,-0.29,11.75,98.2,-85
6593,387.782,-0.05,1.18,0.10,1.13,-0.34,11.25,98.2,-85
6594,387.865,-0.01,1.19,0.15,1.13,-0.34,12.00,98.3,-85
6595,387.949,-0.04,1.18,0.10,1.13,-0.34,12.00,98.3,-85
6596,388.033,-0.05,1.22,0.10,1.18,-0.29,12.00,98.3,-85
6597,388.116,-0.05,1.22,0.15,1.18,-0.29,12.00,98.3,-85
6600,388.383,-0.05,1.23,0.10,1.18,-0.34,11.77,98.4,-85
6601,388.484,-0.14,1.17,0.10,1.13,-0.29,11.75,98.4,-85
6602,388.584,-0.10,1.20,0.15,1.13,-0.39,11.73,98.4,-85
6603,388.684,-0.10,1.23,0.10,1.18,-0.34,11.71,98.4,-85
6604,388.784,-0.09,1.23,0.15,1.18,-0.34,11.69,98.4,-85
6606,388.968,-0.03,1.27,0.05,1.22,-0.34,11.57,98.5,-85
6607,389.051,-0.07,1.22,0.10,1.18,-0.29,11.57,98.5,-85
6608,389.135,-0.11,1.22,0.10,1.18,-0.29,11.57,98.5,-85
6609,389.218,-0.11,1.20,0.10,1.18,-0.24,11.57,98.5,-85
6610,389.302,-0.06,1.16,0.15,1.13,-0.24,11.57,98.5,-85
6612,389.469,0.05,1.20,0.10,1.18,-0.24,12.08,98.6,-85
6613,389.552,0.01,1.17,0.10,1.13,-0.29,11.47,98.6,-85
6614,389.636,-0.07,1.23,0.05,1.18,-0.34,11.47,98.6,-85
6615,389.719,-0.07,1.16,0.15,1.13,-0.24,11.47,98.6,-85
6616,389.803,-0.08,1.23,0.15,1.18,-0.34,11.47,98.6,-85
6617,389.886,-0.04,1.29,0.10,1.22,-0.39,11.49,98.6,-85
6618,389.970,-0.02,1.23,0.10,1.18,-0.34,11.51,98.7,-86
6619,390.053,-0.05,1.19,0.15,1.13,-0.34,11.53,98.7,-86
6620,390.137,-0.08,1.29,0.15,1.22,-0.39,11.55,98.7,-86
6621,390.221,-0.08,1.21,0.15,1.18,-0.24,11.57,98.7,-86
6622,390.304,-0.10,1.23,0.10,1.18,-0.34,11.59,98.7,-86
6624,390.488,-0.05,1.27,0.05,1.22,-0.34,11.47,98.8,-86
6625,390.588,-0.08,1.23,0.15,1.18,-0.34,11.45,98.8,-86
6626,390.688,-0.07,1.21,0.10,1.13,-0.44,11.43,98.8,-86
6627,390.788,-0.07,1.22,0.15,1.18,-0.29,11.41,98.8,-86
6628,390.888,-0.13,1.17,0.10,1.13,-0.29,11.40,98.8,-86
6630,391.072,-0.05,1.23,0.15,1.18,-0.34,11.38,98.8,-86
6631,391.156,-0.08,1.25,0.10,1.22,-0.24,11.38,98.8,-86
6632,391.239,-0.08,1.23,0.15,1.18,-0.34,11.38,98.8,-86
6633,391.323,-0.08,1.17,0.15,1.13,-0.29,11.38,98.8,-86
6634,391.406,-0.15,1.18,0.10,1.13,-0.34,11.38,98.8,-86
6636,391.573,-0.07,1.18,0.10,1.13,-0.34,11.88,98.9,-86
6637,391.657,-0.10,1.20,0.10,1.13,-0.39,11.28,98.9,-86
6638,391.740,-0.08,1.26,0.15,1.18,-0.44,11.28,98.9,-86
6639,391.824,-0.08,1.18,0.10,1.13,-0.34,11.28,98.9,-86
6640,391.907,-0.05,1.14,0.15,1.08,-0.34,11.28,98.9,-86
6641,391.991,-0.06,1.24,0.10,1.18,-0.39,11.28,98.9,-86
6642,392.074,-0.03,1.22,0.15,1.18,-0.29,11.40,99.0,-86
6643,392.158,-0.04,1.17,0.10,1.13,-0.29,11.41,99.0,-86
6644,392.242,-0.06,1.23,0.15,1.18,-0.34,11.43,99.0,-86
6645,392.325,-0.06,1.23,0.10,1.18,-0.34,11.45,99.0,-86
6646,392.409,-0.06,1.18,0.10,1.13,-0.34,11.47,99.0,-86
6648,392.592,-0.04,1.23,0.15,1.18,-0.34,11.47,99.0,-86
6649,392.693,-0.03,1.22,0.10,1.18,-0.29,11.45,99.0,-86
6650,392.793,-0.03,1.16,0.10,1.13,-0.24,11.43,99.0,-86
6651,392.893,-0.03,1.18,0.10,1.13,-0.34,11.42,99.0,-86
6652,392.993,-0.04,1.23,0.10,1.18,-0.34,11.40,99.0,-86
6654,393.177,-0.11,1.17,0.15,1.13,-0.29,11.38,99.1,-88
6655,393.260,-0.07,1.14,0.15,1.08,-0.34,11.38,99.1,-88
6656,393.344,-0.04,1.18,0.10,1.13,-0.34,11.38,99.1,-88
6657,393.427,-0.04,1.22,0.15,1.18,-0.29,11.38,99.1,-88
6658,393.511,-0.09,1.23,0.10,1.18,-0.34,11.38,99.1,-88
6660,393.678,-0.04,1.17,0.10,1.13,-0.29,11.88,99.1,-86
6661,393.761,-0.10,1.17,0.10,1.13,-0.29,11.28,99.1,-86
6662,393.845,-0.09,1.24,0.10,1.18,-0.39,11.28,99.1,-86
6663,393.928,-0.09,1.17,0.10,1.13,-0.29,11.28,99.1,-86
6664,394.012,-0.09,1.18,0.10,1.13,-0.34,11.28,99.1,-86
6665,394.095,-0.04,1.17,0.15,1.13,-0.29,11.28,99.1,-86
6666,394.179,-0.02,1.18,0.10,1.13,-0.34,11.40,99.2,-88
6667,394.262,-0.07,1.22,0.15,1.18,-0.29,11.41,99.2,-88
6668,394.346,-0.11,1.21,0.05,1.18,-0.29,11.43,99.2,-88
6669,394.429,-0.11,1.23,0.05,1.18,-0.34,11.45,99.2,-88
6670,394.513,-0.12,1.16,0.10,1.13,-0.24,11.47,99.2,-88
6672,394.697,-0.07,1.22,0.15,1.13,-0.44,11.47,99.2,-88
6673,394.797,-0.06,1.17,0.10,1.13,-0.29,11.45,99.2,-88
6674,394.897,-0.06,1.22,0.15,1.18,-0.29,11.43,99.2,-88
6675,394.997,-0.06,1.23,0.10,1.18,-0.34,11.41,99.2,-88
6676,395.097,-0.08,1.22,0.10,1.18,-0.29,11.40,99.2,-88
6678,395.281,-0.04,1.23,0.10,1.18,-0.34,11.38,99.3,-87
6679,395.364,-0.07,1.22,0.10,1.18,-0.29,11.38,99.3,-87
6680,395.448,-0.08,1.18,0.10,1.13,-0.34,11.38,99.3,-87
6681,395.532,-0.08,1.23,0.10,1.18,-0.34,11.38,99.3,-87
6682,395.615,-0.12,1.17,0.15,1.13,-0.29,11.38,99.3,-87
6684,395.782,-0.06,1.23,0.05,1.18,-0.34,11.88,99.3,-85
6685,395.866,-0.04,1.19,0.15,1.13,-0.34,11.28,99.3,-85
6686,395.949,0.01,1.13,0.15,1.08,-0.29,11.28,99.3,-85
6687,396.033,0.01,1.22,0.10,1.18,-0.29,11.28,99.3,-85
6688,396.116,-0.07,1.17,0.15,1.13,-0.29,11.28,99.3,-85
6690,396.283,-0.02,1.23,0.10,1.18,-0.34,11.78,99.4,-84
6691,396.367,-0.09,1.23,0.10,1.18,-0.34,11.30,99.4,-84
6692,396.450,-0.14,1.15,0.10,1.13,-0.20,11.32,99.4,-84
6693,396.534,-0.14,1.18,0.10,1.13,-0.34,11.34,99.4,-84
6694,396.617,-0.17,1.18,0.10,1.13,-0.34,11.36,99.4,-84
6695,396.701,-0.09,1.23,0.05,1.18,-0.34,11.38,99.4,-84
6696,396.784,0.04,1.17,0.10,1.13,-0.29,11.49,99.4,-84
6697,396.868,0.04,1.22,0.10,1.18,-0.29,11.49,99.4,-84
6698,396.951,-0.02,1.20,0.10,1.18,-0.20,11.49,99.4,-84
6699,397.035,-0.02,1.21,0.15,1.18,-0.24,11.49,99.4,-84
6700,397.118,-0.07,1.26,0.15,1.18,-0.44,11.49,99.4,-84
6702,397.302,-0.01,1.18,0.10,1.13,-0.34,11.47,99.4,-84
6703,397.402,0.02,1.20,0.10,1.13,-0.39,11.45,99.4,-84
6704,397.502,-0.01,1.27,0.05,1.22,-0.34,11.43,99.4,-84
6705,397.602,-0.01,1.22,0.10,1.18,-0.29,11.41,99.4,-84
6706,397.702,-0.06,1.23,0.10,1.18,-0.34,11.40,99.4,-84
6708,397.885,-0.02,1.27,0.15,1.22,-0.29,11.88,99.5,-83
6709,397.969,-0.01,1.23,0.10,1.18,-0.34,11.28,99.5,-83
6710,398.052,0.04,1.20,0.15,1.13,-0.39,11.28,99.5,-83
6711,398.136,0.04,1.17,0.15,1.13,-0.29,11.28,99.5,-83
6712,398.219,-0.04,1.22,0.10,1.18,-0.29,11.28,99.5,-83
6714,398.387,-0.02,1.17,0.10,1.13,-0.29,11.40,99.5,-85
6715,398.470,-0.04,1.28,0.10,1.22,-0.34,11.42,99.5,-85
6716,398.554,0.04,1.23,0.10,1.18,-0.34,11.43,99.5,-85
6717,398.637,0.04,1.16,0.10,1.13,-0.24,11.45,99.5,-85
6718,398.721,-0.05,1.19,0.15,1.13,-0.34,11.47,99.5,-85
6719,398.804,-0.12,1.20,0.05,1.18,-0.24,10.98,99.5,-85
6720,398.888,-0.13,1.20,0.10,1.13,-0.39,11.59,99.5,-85
6721,398.971,-0.11,1.19,0.15,1.13,-0.34,11.59,99.5,-85
6722,399.055,-0.18,1.17,0.15,1.13,-0.29,11.59,99.5,-85
6723,399.138,-0.18,1.23,0.10,1.18,-0.34,11.59,99.5,-85
6724,399.222,-0.23,1.17,0.10,1.13,-0.29,11.07,99.5,-85
6726,399.405,-0.19,1.27,0.05,1.22,-0.34,11.57,99.6,-84
6727,399.506,-0.15,1.17,0.15,1.13,-0.29,11.55,99.6,-84
6728,399.606,-0.12,1.17,0.15,1.13,-0.29,11.53,99.6,-84
6729,399.706,-0.12,1.18,0.10,1.13,-0.34,11.51,99.6,-84
6730,399.806,-0.20,1.23,0.15,1.18,-0.34,11.49,99.6,-84
6732,399.990,-0.14,1.23,0.15,1.18,-0.34,11.38,99.6,-84
6733,400.073,-0.21,1.24,0.05,1.18,-0.39,11.38,99.6,-84
6734,400.157,-0.11,1.16,0.15,1.13,-0.24,11.38,99.6,-84
6735,400.240,-0.11,1.22,0.10,1.18,-0.29,11.38,99.6,-84
6736,400.324,-0.13,1.20,0.15,1.13,-0.39,11.38,99.6,-84
6738,400.491,-0.01,1.18,0.20,1.13,-0.29,11.40,99.6,-86
6739,400.574,0.00,1.19,0.15,1.13,-0.34,11.42,99.6,-86
6740,400.658,0.03,1.19,0.15,1.13,-0.34,11.43,99.6,-86
6741,400.742,0.03,1.19,0.15,1.13,-0.34,11.45,99.6,-86
6742,400.825,-0.04,1.23,0.10,1.18,-0.34,11.47,99.6,-86
6743,400.909,-0.04,1.22,0.10,1.18,-0.29,10.98,99.6,-86
6744,400.992,-0.02,1.23,0.10,1.18,-0.34,11.59,99.6,-85
6745,401.076,-0.05,1.23,0.10,1.18,-0.34,11.59,99.6,-85
6746,401.159,-0.05,1.20,0.15,1.13,-0.39,11.59,99.6,-85
6747,401.243,-0.05,1.25,0.15,1.18,-0.39,11.59,99.6,-85
6748,401.326,-0.12,1.28,0.10,1.22,-0.34,11.07,99.6,-85
6750,401.510,-0.04,1.17,0.10,1.13,-0.29,11.57,99.7,-89
6751,401.610,-0.07,1.22,0.10,1.18,-0.29,11.55,99.7,-89
6752,401.710,-0.11,1.16,0.10,1.13,-0.24,11.53,99.7,-89
6753,401.810,-0.11,1.24,0.10,1.18,-0.39,11.51,99.7,-89
6754,401.911,-0.13,1.27,0.15,1.22,-0.29,11.49,99.7,-89
6756,402.094,-0.04,1.22,0.10,1.18,-0.29,11.38,99.7,-86
6757,402.178,-0.07,1.26,0.10,1.18,-0.44,11.38,99.7,-86
6758,402.261,-0.11,1.18,0.10,1.13,-0.34,11.38,99.7,-86
6759,402.345,-0.11,1.19,0.20,1.13,-0.34,11.38,99.7,-86
6760,402.429,-0.12,1.22,0.10,1.18,-0.29,11.38,99.7,-86
6762,402.596,-0.01,1.23,0.10,1.18,-0.34,11.40,99.7,-87
6763,402.679,-0.07,1.20,0.10,1.13,-0.39,11.42,99.7,-87
6764,402.763,-0.06,1.25,0.15,1.18,-0.39,11.43,99.7,-87
6765,402.846,-0.06,1.17,0.10,1.13,-0.29,11.45,99.7,-87
6766,402.930,-0.09,1.22,0.10,1.18,-0.29,11.47,99.7,-87
6767,403.014,-0.12,1.19,0.15,1.13,-0.34,10.98,99.7,-87
6768,403.097,-0.09,1.17,0.10,1.13,-0.29,11.59,99.7,-86
6769,403.181,-0.18,1.18,0.10,1.13,-0.34,11.59,99.7,-86
6770,403.264,-0.12,1.19,0.15,1.13,-0.34,11.59,99.7,-86
6771,403.348,-0.12,1.16,0.10,1.13,-0.24,11.59,99.7,-86
6772,403.431,-0.13,1.20,0.10,1.13,-0.39,11.07,99.7,-86
6774,403.615,-0.08,1.23,0.10,1.18,-0.34,11.57,99.7,-86
6775,403.715,-0.09,1.18,0.10,1.13,-0.34,11.55,99.7,-86
6776,403.815,-0.09,1.22,0.10,1.18,-0.29,11.53,99.7,-86
6777,403.915,-0.09,1.22,0.10,1.18,-0.29,11.51,99.7,-86
6778,404.016,-0.16,1.16,0.10,1.13,-0.24,11.49,99.7,-86
6780,404.199,-0.12,1.22,0.15,1.18,-0.29,11.38,99.7,-85
6781,404.283,-0.09,1.18,0.10,1.13,-0.34,11.38,99.7,-85
6782,404.366,-0.12,1.22,0.10,1.18,-0.29,11.38,99.7,-85
6783,404.450,-0.12,1.24,0.10,1.18,-0.39,11.38,99.7,-85
6784,404.533,-0.15,1.16,0.10,1.13,-0.24,11.38,99.7,-85
6786,404.701,-0.09,1.20,0.10,1.18,-0.20,11.40,99.8,-86
6787,404.784,-0.11,1.19,0.15,1.13,-0.34,11.41,99.8,-86
6788,404.868,-0.16,1.18,0.10,1.13,-0.34,11.43,99.8,-86
6789,404.951,-0.16,1.24,0.10,1.18,-0.39,11.45,99.8,-86
6790,405.035,-0.21,1.23,0.15,1.18,-0.34,11.47,99.8,-86
6791,405.118,-0.14,1.23,0.10,1.18,-0.34,10.98,99.8,-86
6792,405.202,-0.16,1.23,0.10,1.18,-0.34,11.59,99.8,-86
6793,405.285,-0.22,1.20,0.10,1.18,-0.24,11.59,99.8,-86
6794,405.369,-0.19,1.18,0.10,1.13,-0.34,11.59,99.8,-86
6795,405.452,-0.19,1.22,0.10,1.18,-0.29,11.59,99.8,-86
6796,405.536,-0.21,1.23,0.10,1.18,-0.34,11.07,99.8,-86
6798,405.720,-0.13,1.20,0.10,1.13,-0.39,11.57,99.8,-86
6799,405.820,-0.12,1.18,0.10,1.13,-0.34,11.55,99.8,-86
6800,405.920,-0.19,1.23,0.05,1.18,-0.34,11.53,99.8,-86
6801,406.020,-0.19,1.22,0.15,1.18,-0.29,11.51,99.8,-86
6802,406.120,-0.17,1.24,0.10,1.18,-0.39,10.98,99.8,-86
6804,406.304,-0.18,1.23,0.15,1.18,-0.34,11.47,99.8,-86
6805,406.388,-0.20,1.22,0.10,1.18,-0.29,11.47,99.8,-86
6806,406.471,-0.21,1.18,0.10,1.13,-0.34,11.47,99.8,-86
6807,406.555,-0.21,1.18,0.10,1.13,-0.34,11.47,99.8,-86
6808,406.638,-0.20,1.19,0.20,1.13,-0.34,11.47,99.8,-86
6810,406.805,-0.08,1.22,0.10,1.18,-0.29,11.38,99.8,-86
6811,406.889,-0.07,1.17,0.10,1.13,-0.29,11.38,99.8,-86
6812,406.973,-0.14,1.23,0.15,1.18,-0.34,11.38,99.8,-86
6813,407.056,-0.14,1.18,0.10,1.13,-0.34,11.38,99.8,-86
6814,407.140,-0.18,1.24,0.10,1.18,-0.39,11.38,99.8,-86
6815,407.223,-0.18,1.22,0.15,1.18,-0.29,10.89,99.8,-86
6816,407.307,-0.07,1.22,0.10,1.18,-0.29,11.51,99.8,-86
6817,407.390,-0.06,1.14,0.10,1.08,-0.34,11.53,99.8,-86
6818,407.474,-0.07,1.24,0.10,1.18,-0.39,11.55,99.8,-86
6819,407.558,-0.07,1.16,0.10,1.13,-0.24,11.57,99.8,-86
6820,407.641,-0.08,1.23,0.15,1.18,-0.34,11.07,99.8,-86
6822,407.825,0.03,1.22,0.10,1.18,-0.29,11.57,99.8,-86
6823,407.925,-0.07,1.23,0.10,1.18,-0.34,11.55,99.8,-86
6824,408.025,-0.07,1.24,0.10,1.18,-0.39,11.53,99.8,-86
6825,408.125,-0.07,1.23,0.10,1.18,-0.34,11.51,99.8,-86
6826,408.225,-0.13,1.18,0.10,1.13,-0.34,10.98,99.8,-86
6828,408.409,-0.07,1.23,0.15,1.18,-0.34,11.47,99.8,-87
6829,408.493,-0.08,1.23,0.15,1.18,-0.34,11.47,99.8,-87
6830,408.576,-0.05,1.26,0.05,1.22,-0.29,11.47,99.8,-87
6831,408.660,-0.05,1.28,0.15,1.22,-0.34,11.47,99.8,-87
6832,408.743,-0.02,1.17,0.15,1.13,-0.29,11.47,99.8,-87
6834,408.910,0.02,1.19,0.15,1.13,-0.34,11.37,99.9,-87
6835,408.994,-0.08,1.17,0.15,1.13,-0.29,11.37,99.9,-87
6836,409.078,-0.02,1.25,0.15,1.18,-0.39,11.37,99.9,-87
6837,409.161,-0.02,1.20,0.05,1.18,-0.24,11.37,99.9,-87
6838,409.245,-0.08,1.19,0.15,1.13,-0.34,11.37,99.9,-87
6839,409.328,-0.18,1.20,0.10,1.18,-0.24,10.88,99.9,-87
6840,409.412,-0.14,1.26,0.10,1.22,-0.29,11.51,99.9,-84
6841,409.495,-0.16,1.19,0.15,1.13,-0.34,11.53,99.9,-84
6842,409.579,-0.16,1.24,0.10,1.18,-0.39,11.55,99.9,-84
6843,409.662,-0.16,1.17,0.10,1.13,-0.29,11.57,99.9,-84
6844,409.746,-0.14,1.19,0.15,1.13,-0.34,11.07,99.9,-84
6846,409.930,-0.02,1.22,0.10,1.18,-0.29,11.57,99.9,-87
6847,410.030,-0.08,1.22,0.10,1.18,-0.29,11.55,99.9,-87
6848,410.130,-0.19,1.18,0.10,1.13,-0.34,11.53,99.9,-87
6849,410.230,-0.19,1.25,0.15,1.18,-0.39,11.51,99.9,-87
6850,410.330,-0.16,1.23,0.15,1.18,-0.34,10.98,99.9,-87
6852,410.514,-0.07,1.17,0.10,1.13,-0.29,11.47,99.9,-85
6853,410.597,-0.10,1.18,0.10,1.13,-0.34,11.47,99.9,-85
6854,410.681,-0.08,1.23,0.10,1.18,-0.34,11.47,99.9,-85
6855,410.764,-0.08,1.22,0.10,1.18,-0.29,11.47,99.9,-85
6856,410.847,-0.14,1.21,0.05,1.18,-0.29,11.47,99.9,-85
6858,411.014,-0.12,1.17,0.10,1.13,-0.29,11.37,99.9,-86
6859,411.098,-0.09,1.19,0.15,1.13,-0.34,11.37,99.9,-86
6860,411.181,-0.17,1.23,0.05,1.18,-0.34,11.37,99.9,-86
6861,411.265,-0.17,1.11,0.10,1.08,-0.24,11.37,99.9,-86
6862,411.348,-0.19,1.18,0.10,1.13,-0.34,11.37,99.9,-86
6863,411.432,-0.21,1.20,0.10,1.18,-0.24,10.88,99.9,-86
6864,411.516,-0.20,1.20,0.15,1.13,-0.39,11.51,99.9,-95
6865,411.599,-0.20,1.29,0.10,1.22,-0.39,11.53,99.9,-95
6866,411.683,-0.08,1.19,0.15,1.13,-0.34,11.55,99.9,-95
6867,411.766,-0.08,1.23,0.15,1.18,-0.34,11.57,99.9,-95
6868,411.850,-0.19,1.23,0.10,1.18,-0.34,11.07,99.9,-95
6870,412.033,-0.12,1.23,0.10,1.18,-0.34,11.57,99.9,-91
6871,412.134,-0.07,1.24,0.05,1.18,-0.39,11.55,99.9,-91
6872,412.234,-0.21,1.23,0.10,1.18,-0.34,11.53,99.9,-91
6873,412.334,-0.21,1.23,0.10,1.18,-0.34,11.51,99.9,-91
6874,412.434,-0.21,1.23,0.15,1.18,-0.34,10.98,99.9,-91
6876,412.618,-0.04,1.17,0.10,1.13,-0.29,11.47,99.9,-88
6877,412.701,0.03,1.18,0.10,1.13,-0.34,11.47,99.9,-88
6878,412.785,-0.02,1.22,0.10,1.18,-0.29,11.47,99.9,-88
6879,412.869,-0.02,1.18,0.10,1.13,-0.34,11.47,99.9,-88
6880,412.952,-0.05,1.21,0.05,1.18,-0.29,11.47,99.9,-88
6882,413.119,-0.04,1.16,0.15,1.13,-0.24,11.37,99.9,-88
6883,413.203,-0.09,1.23,0.10,1.18,-0.34,11.37,99.9,-88
6884,413.286,-0.01,1.18,0.10,1.13,-0.34,11.37,99.9,-88
6885,413.370,-0.01,1.20,0.10,1.13,-0.39,11.37,99.9,-88
6886,413.453,-0.03,1.25,0.15,1.18,-0.39,11.37,99.9,-88
6887,413.537,0.00,1.24,0.10,1.18,-0.39,10.88,99.9,-88
6888,413.620,0.01,1.29,0.10,1.22,-0.39,11.51,99.9,-87
6889,413.704,0.02,1.17,0.10,1.13,-0.29,11.53,99.9,-87
6890,413.788,-0.02,1.31,0.10,1.22,-0.44,11.55,99.9,-87
6891,413.871,-0.02,1.22,0.15,1.18,-0.29,11.57,99.9,-87
6894,414.138,-0.08,1.17,0.10,1.13,-0.29,11.47,99.9,-91
6895,414.239,-0.10,1.18,0.10,1.13,-0.34,11.45,99.9,-91
6896,414.339,-0.14,1.20,0.10,1.13,-0.39,11.43,99.9,-91
6897,414.439,-0.14,1.22,0.10,1.18,-0.29,11.41,99.9,-91
6898,414.539,-0.22,1.23,0.10,1.18,-0.34,11.39,99.9,-91
6900,414.723,-0.13,1.17,0.10,1.13,-0.29,11.37,99.9,-89
6901,414.807,-0.17,1.25,0.15,1.18,-0.39,11.37,99.9,-89
6902,414.890,-0.14,1.23,0.10,1.18,-0.34,11.37,99.9,-89
6903,414.974,-0.14,1.23,0.10,1.18,-0.34,11.37,99.9,-89
6904,415.057,-0.25,1.15,0.15,1.13,-0.20,11.37,99.9,-89
6906,415.224,-0.13,1.20,0.10,1.13,-0.39,11.87,99.9,-91
6907,415.308,-0.20,1.18,0.10,1.13,-0.34,11.28,99.9,-91
6908,415.391,-0.16,1.22,0.15,1.18,-0.29,11.28,99.9,-91
6909,415.475,-0.16,1.17,0.15,1.13,-0.29,11.28,99.9,-91
6910,415.558,-0.20,1.17,0.15,1.13,-0.29,11.28,99.9,-91
6912,415.725,-0.05,1.19,0.15,1.13,-0.34,11.78,99.9,-92
6913,415.809,-0.07,1.18,0.10,1.13,-0.34,11.30,99.9,-92
6914,415.893,-0.06,1.18,0.10,1.13,-0.34,11.32,99.9,-92
6915,415.976,-0.06,1.18,0.10,1.13,-0.34,11.34,99.9,-92
6916,416.060,-0.04,1.28,0.15,1.22,-0.34,11.36,99.9,-92
6917,416.143,-0.07,1.20,0.10,1.18,-0.24,11.37,99.9,-92
6918,416.227,-0.08,1.18,0.10,1.13,-0.34,11.49,99.9,-91
6919,416.310,-0.13,1.22,0.10,1.18,-0.29,11.49,99.9,-91
6920,416.394,-0.11,1.22,0.10,1.18,-0.29,11.49,99.9,-91
6921,416.477,-0.11,1.22,0.10,1.18,-0.29,11.49,99.9,-91
6922,416.561,-0.13,1.22,0.10,1.18,-0.29,11.49,99.9,-91
6924,416.745,-0.03,1.17,0.10,1.13,-0.29,11.47,99.9,-92
6925,416.845,-0.06,1.17,0.10,1.13,-0.29,11.45,99.9,-92
6926,416.945,-0.08,1.23,0.10,1.18,-0.34,11.43,99.9,-92
6927,417.045,-0.08,1.21,0.05,1.18,-0.29,11.41,99.9,-92
6928,417.145,-0.11,1.28,0.15,1.22,-0.34,11.39,99.9,-92
6930,417.329,-0.12,1.18,0.10,1.13,-0.34,11.87,99.9,-91
6931,417.413,-0.14,1.18,0.10,1.13,-0.34,11.28,99.9,-91
6932,417.496,-0.11,1.23,0.10,1.18,-0.34,11.28,99.9,-91
6933,417.580,-0.11,1.22,0.10,1.18,-0.29,11.28,99.9,-91
6934,417.663,-0.09,1.18,0.10,1.13,-0.34,11.28,99.9,-91
6936,417.830,0.01,1.23,0.10,1.18,-0.34,11.78,99.9,-92
6937,417.914,-0.06,1.17,0.15,1.13,-0.29,11.30,99.9,-92
6938,417.997,-0.11,1.18,0.10,1.13,-0.34,11.32,99.9,-92
6939,418.081,-0.11,1.17,0.10,1.13,-0.29,11.34,99.9,-92
6940,418.165,-0.10,1.22,0.10,1.18,-0.29,11.36,99.9,-92
6941,418.248,-0.10,1.22,0.10,1.18,-0.29,11.37,99.9,-92
6942,418.332,-0.01,1.22,0.15,1.18,-0.29,11.49,99.9,-92
6943,418.415,-0.06,1.28,0.15,1.22,-0.34,11.49,99.9,-92
6944,418.499,-0.08,1.26,0.10,1.22,-0.29,11.49,99.9,-92
6945,418.582,-0.08,1.21,0.10,1.13,-0.44,11.49,99.9,-92
6946,418.666,-0.10,1.17,0.10,1.13,-0.29,11.49,99.9,-92
6948,418.850,-0.02,1.23,0.05,1.18,-0.34,11.47,100.0,-88
6949,418.950,-0.12,1.22,0.15,1.18,-0.29,11.45,100.0,-88
6950,419.050,-0.11,1.23,0.10,1.18,-0.34,11.43,100.0,-88
6951,419.150,-0.11,1.22,0.10,1.18,-0.29,11.41,100.0,-88
6952,419.250,-0.08,1.23,0.15,1.18,-0.34,11.39,100.0,-88
6954,419.434,-0.14,1.25,0.15,1.18,-0.39,11.87,100.0,-89
6955,419.518,-0.20,1.22,0.10,1.18,-0.29,11.28,100.0,-89
6956,419.601,-0.17,1.22,0.10,1.18,-0.29,11.28,100.0,-89
6957,419.685,-0.17,1.26,0.10,1.22,-0.29,11.28,100.0,-89
6958,419.768,-0.14,1.23,0.10,1.18,-0.34,11.28,100.0,-89
6960,419.935,-0.17,1.23,0.10,1.18,-0.34,11.78,100.0,-89
6961,420.019,-0.23,1.14,0.10,1.08,-0.34,11.30,100.0,-89
6962,420.102,-0.22,1.22,0.15,1.18,-0.29,11.32,100.0,-89
6963,420.186,-0.22,1.20,0.10,1.18,-0.24,11.34,100.0,-89
6964,420.269,-0.22,1.18,0.10,1.13,-0.34,11.36,100.0,-89
6965,420.353,-0.21,1.15,0.10,1.08,-0.39,11.37,100.0,-89
6966,420.437,-0.09,1.22,0.10,1.18,-0.29,11.49,100.0,-89
6967,420.520,-0.17,1.22,0.10,1.18,-0.29,11.49,100.0,-89
6968,420.604,-0.21,1.22,0.10,1.18,-0.29,11.49,100.0,-89
6969,420.687,-0.21,1.19,0.15,1.13,-0.34,11.49,100.0,-89
6970,420.771,-0.23,1.20,0.10,1.13,-0.39,11.49,100.0,-89
6972,420.955,-0.14,1.18,0.10,1.13,-0.34,11.47,100.0,-89
6973,421.055,-0.18,1.26,0.10,1.22,-0.29,11.45,100.0,-89
6974,421.155,-0.20,1.22,0.10,1.18,-0.29,11.43,100.0,-89
6975,421.255,-0.20,1.23,0.10,1.18,-0.34,11.41,100.0,-89
6976,421.355,-0.28,1.18,0.10,1.13,-0.34,11.39,100.0,-89
6978,421.539,-0.22,1.22,0.10,1.18,-0.29,11.87,100.0,-88
6979,421.623,-0.27,1.23,0.15,1.18,-0.34,11.28,100.0,-88
6980,421.706,-0.26,1.20,0.15,1.13,-0.39,11.28,100.0,-88
6981,421.790,-0.26,1.23,0.10,1.18,-0.34,11.28,100.0,-88
6982,421.873,-0.26,1.17,0.15,1.13,-0.29,11.28,100.0,-88
6984,422.040,-0.21,1.18,0.10,1.13,-0.34,11.78,100.0,-89
6985,422.124,-0.22,1.26,0.10,1.22,-0.29,11.30,100.0,-89
6986,422.207,-0.22,1.18,0.10,1.13,-0.34,11.32,100.0,-89
6987,422.291,-0.22,1.17,0.15,1.13,-0.29,11.34,100.0,-89
6988,422.374,-0.19,1.23,0.10,1.18,-0.34,11.35,100.0,-89
6989,422.458,-0.23,1.22,0.10,1.18,-0.29,11.37,100.0,-89
6990,422.542,-0.16,1.19,0.15,1.13,-0.34,11.49,100.0,-92
6991,422.625,-0.17,1.22,0.10,1.18,-0.29,11.49,100.0,-92
6992,422.709,-0.18,1.22,0.10,1.18,-0.29,11.49,100.0,-92
6993,422.792,-0.18,1.23,0.15,1.18,-0.34,11.49,100.0,-92
6994,422.876,-0.23,1.20,0.10,1.18,-0.24,11.49,100.0,-92
6996,423.059,-0.11,1.22,0.10,1.18,-0.29,11.47,100.0,-95
6997,423.160,-0.13,1.20,0.10,1.13,-0.39,11.45,100.0,-95
6998,423.260,-0.13,1.23,0.10,1.18,-0.34,11.43,100.0,-95
6999,423.360,-0.13,1.27,0.05,1.22,-0.34,11.41,100.0,-95
7000,423.460,-0.14,1.23,0.10,1.18,-0.34,11.39,100.0,-95
7002,423.644,-0.12,1.14,0.15,1.08,-0.34,11.87,100.0,-95
7003,423.727,-0.17,1.20,0.15,1.13,-0.39,11.28,100.0,-95
7004,423.811,-0.09,1.19,0.15,1.13,-0.34,11.28,100.0,-95
7005,423.895,-0.09,1.22,0.15,1.18,-0.29,11.28,100.0,-95
7006,423.978,-0.16,1.13,0.05,1.08,-0.34,11.28,100.0,-95
7008,424.145,-0.16,1.16,0.10,1.13,-0.24,11.39,100.0,-93
7009,424.229,-0.16,1.24,0.10,1.18,-0.39,11.41,100.0,-93
7010,424.312,-0.19,1.18,0.10,1.13,-0.34,11.43,100.0,-93
7011,424.396,-0.19,1.18,0.10,1.13,-0.34,11.45,100.0,-93
7012,424.479,-0.15,1.26,0.10,1.22,-0.29,11.47,100.0,-93
7013,424.563,-0.22,1.23,0.15,1.18,-0.34,10.98,100.0,-93
7014,424.646,-0.19,1.18,0.10,1.13,-0.34,11.59,100.0,-92
7015,424.730,-0.19,1.23,0.15,1.18,-0.34,11.59,100.0,-92
7016,424.814,-0.20,1.23,0.10,1.18,-0.34,11.59,100.0,-92
7017,424.897,-0.20,1.24,0.10,1.18,-0.39,11.59,100.0,-92
7018,424.981,-0.20,1.20,0.15,1.13,-0.39,11.07,100.0,-92
7020,425.164,-0.12,1.17,0.15,1.13,-0.29,11.57,100.0,-91
7021,425.265,-0.15,1.17,0.10,1.13,-0.29,11.55,100.0,-91
7022,425.365,-0.10,1.17,0.15,1.13,-0.29,11.53,100.0,-91
7023,425.465,-0.10,1.23,0.10,1.18,-0.34,11.51,100.0,-91
7024,425.565,-0.19,1.17,0.10,1.08,-0.44,10.98,100.0,-91
7026,425.749,-0.16,1.23,0.10,1.18,-0.34,11.47,100.0,-88
7027,425.832,-0.16,1.19,0.15,1.13,-0.34,11.47,100.0,-88
7028,425.916,-0.15,1.17,0.10,1.13,-0.29,11.47,100.0,-88
7029,425.999,-0.15,1.18,0.10,1.13,-0.34,11.47,100.0,-88
7030,426.083,-0.30,1.17,0.15,1.13,-0.29,11.47,100.0,-88
7032,426.250,-0.14,1.23,0.10,1.18,-0.34,11.37,100.0,-86
7033,426.334,-0.16,1.20,0.10,1.13,-0.39,11.37,100.0,-86
7034,426.417,-0.20,1.16,0.10,1.13,-0.24,11.37,100.0,-86
7035,426.501,-0.20,1.24,0.10,1.18,-0.39,11.37,100.0,-86
7036,426.584,-0.25,1.22,0.10,1.18,-0.29,11.37,100.0,-86
7037,426.668,-0.25,1.17,0.10,1.13,-0.29,10.88,100.0,-86
7038,426.751,-0.23,1.18,0.10,1.13,-0.34,11.51,100.0,-85
7039,426.835,-0.27,1.16,0.10,1.13,-0.24,11.53,100.0,-85
7040,426.919,-0.21,1.19,0.15,1.13,-0.34,11.55,100.0,-85
7041,427.002,-0.21,1.19,0.15,1.13,-0.34,11.57,100.0,-85
7042,427.086,-0.22,1.25,0.15,1.18,-0.39,11.07,100.0,-85
7044,427.269,-0.12,1.22,0.10,1.18,-0.29,11.57,100.0,-88
7045,427.370,-0.19,1.17,0.10,1.13,-0.29,11.55,100.0,-88
7046,427.470,-0.28,1.17,0.15,1.13,-0.29,11.53,100.0,-88
7047,427.570,-0.28,1.23,0.15,1.18,-0.34,11.51,100.0,-88
7048,427.670,-0.26,1.18,0.10,1.13,-0.34,10.98,100.0,-88
7050,427.854,-0.11,1.23,0.10,1.18,-0.34,11.47,100.0,-89
7051,427.937,-0.15,1.17,0.10,1.13,-0.29,11.47,100.0,-89
7052,428.021,-0.11,1.22,0.10,1.18,-0.29,11.47,100.0,-89
7053,428.104,-0.11,1.23,0.10,1.18,-0.34,11.47,100.0,-89
7054,428.188,-0.21,1.19,0.15,1.13,-0.34,11.47,100.0,-89
7056,428.355,-0.13,1.17,0.10,1.13,-0.29,11.37,100.0,-87
7057,428.439,-0.13,1.22,0.10,1.18,-0.29,11.37,100.0,-87
7058,428.522,-0.14,1.24,0.10,1.18,-0.39,11.37,100.0,-87
7059,428.606,-0.14,1.23,0.10,1.18,-0.34,11.37,100.0,-87
7060,428.689,-0.21,1.24,0.10,1.18,-0.39,11.37,100.0,-87
7061,428.773,-0.17,1.23,0.10,1.18,-0.34,10.88,100.0,-87
7062,428.856,-0.18,1.22,0.10,1.18,-0.29,11.51,100.0,-80
7063,428.940,-0.16,1.17,0.10,1.13,-0.29,11.53,100.0,-80
7064,429.023,-0.18,1.22,0.10,1.18,-0.29,11.55,100.0,-80
7065,429.107,-0.18,1.17,0.10,1.13,-0.29,11.57,100.0,-80
7066,429.191,-0.12,1.24,0.05,1.18,-0.39,11.07,100.0,-80
7068,429.374,-0.10,1.23,0.10,1.18,-0.34,11.57,100.0,-96
7069,429.474,-0.10,1.22,0.15,1.18,-0.29,11.55,100.0,-96
7070,429.574,-0.10,1.23,0.10,1.18,-0.34,11.53,100.0,-96
7071,429.674,-0.10,1.20,0.05,1.18,-0.24,11.51,100.0,-96
7072,429.774,-0.12,1.29,0.10,1.22,-0.39,10.98,100.0,-96
7074,429.958,0.02,1.23,0.10,1.18,-0.34,11.47,100.0,-87
7075,430.041,-0.05,1.25,0.15,1.18,-0.39,11.47,100.0,-87
7076,430.125,-0.11,1.17,0.15,1.13,-0.29,11.47,100.0,-87
7077,430.208,-0.11,1.29,0.10,1.22,-0.39,11.47,100.0,-87
7078,430.292,-0.19,1.18,0.10,1.13,-0.34,11.47,100.0,-87
7080,430.459,-0.09,1.18,0.10,1.13,-0.34,11.37,100.0,-85
7081,430.543,-0.17,1.17,0.10,1.13,-0.29,11.37,100.0,-85
7082,430.626,-0.11,1.14,0.10,1.08,-0.34,11.37,100.0,-85
7083,430.710,-0.11,1.19,0.15,1.13,-0.34,11.37,100.0,-85
7084,430.793,-0.17,1.28,0.10,1.22,-0.34,11.37,100.0,-85
7085,430.877,-0.19,1.19,0.20,1.13,-0.34,10.88,100.0,-85
7086,430.960,-0.11,1.22,0.15,1.18,-0.29,11.51,100.0,-91
7087,431.044,-0.13,1.23,0.10,1.18,-0.34,11.53,100.0,-91
7088,431.127,-0.18,1.23,0.10,1.18,-0.34,11.55,100.0,-91
7089,431.211,-0.18,1.25,0.15,1.18,-0.39,11.57,100.0,-91
7090,431.295,-0.20,1.19,0.15,1.13,-0.34,11.07,100.0,-91
7092,431.478,-0.07,1.23,0.10,1.18,-0.34,11.57,100.0,-88
7093,431.578,-0.09,1.19,0.15,1.13,-0.34,11.55,100.0,-88
7094,431.679,-0.18,1.22,0.15,1.18,-0.29,11.53,100.0,-88
7095,431.779,-0.18,1.24,0.10,1.18,-0.39,11.51,100.0,-88
7096,431.879,-0.22,1.19,0.15,1.13,-0.34,10.98,100.0,-88
7098,432.063,-0.16,1.22,0.10,1.18,-0.29,11.47,100.0,-87
7099,432.146,-0.18,1.23,0.15,1.18,-0.34,11.47,100.0,-87
7100,432.230,-0.21,1.22,0.10,1.18,-0.29,11.47,100.0,-87
7101,432.313,-0.21,1.26,0.05,1.22,-0.29,11.47,100.0,-87
7102,432.397,-0.25,1.17,0.10,1.13,-0.29,11.47,100.0,-87
7104,432.564,-0.22,1.17,0.10,1.13,-0.29,11.37,100.0,-86
7105,432.648,-0.21,1.22,0.10,1.18,-0.29,11.37,100.0,-86
7106,432.731,-0.27,1.23,0.10,1.18,-0.34,11.37,100.0,-86
7107,432.815,-0.27,1.23,0.10,1.18,-0.34,11.37,100.0,-86
7108,432.898,-0.31,1.17,0.15,1.13,-0.29,11.37,100.0,-86
7109,432.982,-0.25,1.23,0.15,1.18,-0.34,10.88,100.0,-86
7110,433.065,-0.11,1.24,0.10,1.18,-0.39,11.51,100.0,-86
7111,433.149,-0.19,1.19,0.15,1.13,-0.34,11.53,100.0,-86
7112,433.232,-0.17,1.17,0.10,1.13,-0.29,11.55,100.0,-86
7113,433.316,-0.17,1.16,0.10,1.13,-0.24,11.57,100.0,-86
7114,433.399,-0.19,1.19,0.15,1.13,-0.34,11.07,100.0,-86
7116,433.583,-0.19,1.23,0.10,1.18,-0.34,11.57,100.0,-83
7117,433.683,-0.23,1.20,0.10,1.18,-0.24,11.55,100.0,-83
7118,433.783,-0.26,1.23,0.10,1.18,-0.34,11.53,100.0,-83
7119,433.884,-0.26,1.23,0.10,1.18,-0.34,11.51,100.0,-83
7120,433.984,-0.21,1.23,0.15,1.18,-0.34,10.98,100.0,-83
7122,434.168,-0.18,1.20,0.10,1.18,-0.24,11.47,100.0,-84
7123,434.251,-0.22,1.20,0.15,1.13,-0.39,11.47,100.0,-84
7124,434.335,-0.22,1.17,0.05,1.13,-0.29,11.47,100.0,-84
7125,434.418,-0.22,1.18,0.10,1.13,-0.34,11.47,100.0,-84
7126,434.502,-0.21,1.24,0.10,1.18,-0.39,11.47,100.0,-84
7128,434.669,-0.13,1.23,0.15,1.18,-0.34,11.37,100.0,-86
7129,434.752,-0.13,1.23,0.10,1.18,-0.34,11.37,100.0,-86
7130,434.836,-0.16,1.17,0.10,1.13,-0.29,11.37,100.0,-86
7131,434.919,-0.16,1.22,0.10,1.18,-0.29,11.37,100.0,-86
7132,435.003,-0.20,1.23,0.10,1.18,-0.34,11.37,100.0,-86
7134,435.170,-0.12,1.21,0.05,1.18,-0.29,11.39,100.0,-85
7135,435.254,-0.15,1.18,0.10,1.13,-0.34,11.41,100.0,-85
7136,435.337,-0.10,1.17,0.10,1.13,-0.29,11.43,100.0,-85
7137,435.421,-0.10,1.23,0.10,1.18,-0.34,11.45,100.0,-85
7138,435.504,-0.21,1.17,0.15,1.13,-0.29,11.47,100.0,-85
7139,435.588,-0.19,1.17,0.15,1.13,-0.29,10.98,100.0,-85
7140,435.671,-0.15,1.23,0.15,1.18,-0.34,11.59,100.0,-85
7141,435.755,-0.23,1.11,0.10,1.08,-0.24,11.59,100.0,-85
7142,435.839,-0.25,1.26,0.10,1.22,-0.29,11.59,100.0,-85
7143,435.922,-0.25,1.19,0.15,1.13,-0.34,11.59,100.0,-85
7144,436.006,-0.24,1.18,0.10,1.13,-0.34,11.07,100.0,-85
7146,436.189,-0.22,1.23,0.15,1.18,-0.34,11.57,100.0,-87
7147,436.290,-0.28,1.19,0.15,1.13,-0.34,11.55,100.0,-87
7148,436.390,-0.24,1.15,0.20,1.08,-0.34,11.53,100.0,-87
7149,436.490,-0.24,1.22,0.15,1.18,-0.29,11.51,100.0,-87
7150,436.590,-0.24,1.18,0.10,1.13,-0.34,11.49,100.0,-87
7152,436.774,-0.10,1.22,0.15,1.18,-0.29,11.37,100.0,-89
7153,436.857,-0.15,1.17,0.15,1.13,-0.29,11.37,100.0,-89
7154,436.941,-0.17,1.17,0.10,1.13,-0.29,11.37,100.0,-89
7155,437.024,-0.17,1.23,0.15,1.18,-0.34,11.37,100.0,-89
7156,437.108,-0.27,1.14,0.15,1.08,-0.34,11.37,100.0,-89
7158,437.275,-0.22,1.18,0.10,1.13,-0.34,11.39,100.0,-87
7159,437.359,-0.26,1.22,0.15,1.18,-0.29,11.41,100.0,-87
7160,437.442,-0.25,1.19,0.15,1.13,-0.34,11.43,100.0,-87
7161,437.526,-0.25,1.18,0.10,1.13,-0.34,11.45,100.0,-87
7162,437.609,-0.21,1.20,0.10,1.18,-0.24,11.47,100.0,-87
7163,437.693,-0.18,1.17,0.10,1.13,-0.29,10.98,100.0,-87
7164,437.776,-0.14,1.23,0.15,1.18,-0.34,11.59,100.0,-86
7165,437.860,-0.13,1.23,0.10,1.18,-0.34,11.59,100.0,-86
7166,437.943,-0.16,1.23,0.10,1.18,-0.34,11.59,100.0,-86
7167,438.027,-0.16,1.23,0.10,1.18,-0.34,11.59,100.0,-86
7168,438.110,-0.23,1.25,0.15,1.18,-0.39,11.07,100.0,-86
7170,438.294,-0.06,1.24,0.10,1.18,-0.39,11.57,100.0,-87
7171,438.394,-0.09,1.20,0.15,1.13,-0.39,11.55,100.0,-87
7172,438.495,-0.14,1.22,0.15,1.18,-0.29,11.53,100.0,-87
7173,438.595,-0.14,1.23,0.15,1.18,-0.34,11.51,100.0,-87
7174,438.695,-0.14,1.18,0.10,1.13,-0.34,11.49,100.0,-87
7176,438.879,-0.05,1.18,0.10,1.13,-0.34,11.37,100.0,-87
7177,438.962,-0.10,1.17,0.10,1.13,-0.29,11.37,100.0,-87
7178,439.046,-0.06,1.23,0.15,1.18,-0.34,11.37,100.0,-87
7179,439.129,-0.06,1.17,0.10,1.13,-0.29,11.37,100.0,-87
7180,439.213,-0.12,1.22,0.10,1.18,-0.29,11.37,100.0,-87
7182,439.380,-0.16,1.20,0.10,1.13,-0.39,11.39,100.0,-89
7183,439.464,-0.10,1.14,0.10,1.08,-0.34,11.41,100.0,-89
7184,439.547,-0.04,1.28,0.10,1.22,-0.34,11.43,100.0,-89
7185,439.631,-0.04,1.22,0.10,1.18,-0.29,11.45,100.0,-89
7186,439.714,-0.15,1.16,0.15,1.13,-0.24,11.47,100.0,-89
7187,439.798,-0.15,1.22,0.10,1.18,-0.29,10.98,100.0,-89
7188,439.881,-0.10,1.18,0.10,1.13,-0.34,11.59,100.0,-82
7189,439.965,-0.13,1.23,0.10,1.18,-0.34,11.59,100.0,-82
7190,440.048,-0.15,1.12,0.10,1.08,-0.29,11.59,100.0,-82
7191,440.132,-0.15,1.23,0.10,1.18,-0.34,11.59,100.0,-82
7192,440.215,-0.21,1.16,0.10,1.13,-0.24,11.07,100.0,-82
7194,440.399,-0.11,1.28,0.15,1.22,-0.34,11.57,100.0,-86
7195,440.499,-0.10,1.22,0.15,1.18,-0.29,11.55,100.0,-86
7196,440.600,-0.17,1.12,0.10,1.08,-0.29,11.53,100.0,-86
7197,440.700,-0.17,1.16,0.15,1.08,-0.39,11.51,100.0,-86
7198,440.800,-0.15,1.23,0.10,1.18,-0.34,11.49,100.0,-86
7200,440.984,-0.09,1.17,0.10,1.13,-0.29,11.37,100.0,-86
7201,441.067,-0.15,1.28,0.15,1.22,-0.34,11.37,100.0,-86
7202,441.151,-0.17,1.28,0.15,1.22,-0.34,11.37,100.0,-86
7203,441.234,-0.17,1.23,0.10,1.18,-0.34,11.37,100.0,-86
7204,441.318,-0.19,1.20,0.10,1.13,-0.39,11.37,100.0,-86
7206,441.485,-0.07,1.23,0.10,1.18,-0.34,11.39,100.0,-90
7207,441.569,-0.16,1.25,0.15,1.18,-0.39,11.41,100.0,-90
7208,441.652,-0.15,1.17,0.10,1.13,-0.29,11.43,100.0,-90
7209,441.736,-0.15,1.23,0.15,1.18,-0.34,11.45,100.0,-90
7210,441.819,-0.11,1.23,0.10,1.18,-0.34,11.47,100.0,-90
7211,441.903,-0.08,1.16,0.10,1.13,-0.24,10.98,100.0,-90
7212,441.986,-0.06,1.17,0.10,1.13,-0.29,11.59,100.0,-81
7213,442.070,-0.11,1.17,0.15,1.13,-0.29,11.59,100.0,-81
7214,442.153,-0.10,1.23,0.10,1.18,-0.34,11.59,100.0,-81
7215,442.237,-0.10,1.23,0.10,1.18,-0.34,11.59,100.0,-81
7218,442.504,0.05,1.18,0.05,1.13,-0.34,11.47,100.0,-81
7219,442.604,-0.01,1.17,0.15,1.13,-0.29,11.45,100.0,-81
7220,442.705,-0.06,1.20,0.15,1.13,-0.39,11.43,100.0,-81
7221,442.805,-0.06,1.20,0.15,1.13,-0.39,11.41,100.0,-81
7222,442.905,-0.15,1.18,0.10,1.13,-0.34,11.39,100.0,-81
7224,443.089,0.08,1.23,0.10,1.18,-0.34,11.87,100.0,-81
7225,443.172,-0.01,1.21,0.05,1.18,-0.29,11.28,100.0,-81
7226,443.256,-0.06,1.23,0.10,1.18,-0.34,11.28,100.0,-81
7227,443.339,-0.06,1.19,0.15,1.13,-0.34,11.28,100.0,-81
7228,443.423,-0.01,1.23,0.10,1.18,-0.34,11.28,100.0,-81
7230,443.590,0.02,1.23,0.10,1.18,-0.34,11.78,100.0,-81
7231,443.674,-0.09,1.17,0.10,1.13,-0.29,11.30,100.0,-81
7232,443.757,-0.04,1.17,0.10,1.13,-0.29,11.32,100.0,-81
7233,443.841,-0.04,1.17,0.10,1.13,-0.29,11.34,100.0,-81
7234,443.924,-0.12,1.23,0.15,1.18,-0.34,11.35,100.0,-81
7235,444.008,-0.10,1.16,0.10,1.13,-0.24,11.37,100.0,-81
7236,444.091,-0.02,1.23,0.15,1.18,-0.34,11.49,100.0,-80
7237,444.175,-0.03,1.22,0.10,1.18,-0.29,11.49,100.0,-80
7238,444.258,0.01,1.22,0.15,1.18,-0.29,11.49,100.0,-80
7239,444.342,0.01,1.17,0.10,1.13,-0.29,11.49,100.0,-80
7240,444.425,-0.08,1.20,0.10,1.13,-0.39,11.49,100.0,-80
7242,444.609,-0.06,1.18,0.10,1.13,-0.34,11.47,100.0,-84
7243,444.709,-0.13,1.21,0.05,1.18,-0.29,11.45,100.0,-84
7244,444.809,-0.12,1.23,0.10,1.18,-0.34,11.43,100.0,-84
7245,444.910,-0.12,1.22,0.10,1.18,-0.29,11.41,100.0,-84
7246,445.010,-0.14,1.17,0.05,1.13,-0.29,11.39,100.0,-84
7248,445.194,-0.04,1.25,0.15,1.18,-0.39,11.37,100.0,-84
7249,445.277,-0.06,1.24,0.10,1.18,-0.39,11.37,100.0,-84
7250,445.361,-0.12,1.23,0.10,1.18,-0.34,11.37,100.0,-84
7251,445.444,-0.12,1.23,0.10,1.18,-0.34,11.37,100.0,-84
7252,445.528,-0.13,1.22,0.10,1.18,-0.29,11.37,100.0,-84
7254,445.695,-0.04,1.18,0.10,1.13,-0.34,11.87,100.0,-83
7255,445.778,-0.05,1.22,0.10,1.18,-0.29,11.28,100.0,-83
7256,445.862,-0.07,1.18,0.20,1.13,-0.29,11.28,100.0,-83
7257,445.945,-0.07,1.23,0.15,1.18,-0.34,11.28,100.0,-83
7258,446.029,-0.07,1.18,0.10,1.13,-0.34,11.28,100.0,-83
7259,446.113,-0.05,1.19,0.15,1.13,-0.34,11.28,100.0,-83
7260,446.196,-0.08,1.24,0.10,1.18,-0.39,11.39,100.0,-81
7261,446.280,-0.15,1.23,0.10,1.18,-0.34,11.41,100.0,-81
7262,446.363,-0.06,1.23,0.15,1.18,-0.34,11.43,100.0,-81
7263,446.447,-0.06,1.17,0.15,1.13,-0.29,11.45,100.0,-81
7264,446.530,-0.05,1.20,0.05,1.18,-0.24,11.47,100.0,-81
7266,446.714,-0.07,1.23,0.15,1.18,-0.34,11.47,100.0,-81
7267,446.814,-0.13,1.24,0.10,1.18,-0.39,11.45,100.0,-81
7268,446.914,-0.05,1.18,0.10,1.13,-0.34,11.43,100.0,-81
7269,447.015,-0.05,1.25,0.15,1.18,-0.39,11.41,100.0,-81
7270,447.115,-0.06,1.17,0.15,1.13,-0.29,11.39,100.0,-81
7272,447.298,-0.06,1.20,0.10,1.13,-0.39,11.37,100.0,-83
7273,447.382,-0.11,1.17,0.15,1.13,-0.29,11.37,100.0,-83
7274,447.466,-0.10,1.17,0.10,1.13,-0.29,11.37,100.0,-83
7275,447.549,-0.10,1.26,0.15,1.18,-0.44,11.37,100.0,-83
7276,447.633,-0.19,1.16,0.15,1.08,-0.39,11.37,100.0,-83
7278,447.800,-0.06,1.22,0.15,1.18,-0.29,11.87,100.0,-84
7279,447.883,-0.09,1.27,0.15,1.22,-0.29,11.28,100.0,-84
7280,447.967,-0.14,1.20,0.10,1.13,-0.39,11.28,100.0,-84
7281,448.050,-0.14,1.23,0.05,1.18,-0.34,11.28,100.0,-84
7282,448.134,-0.14,1.24,0.10,1.18,-0.39,11.28,100.0,-84
7283,448.218,-0.13,1.16,0.15,1.13,-0.24,11.28,100.0,-84
7284,448.301,-0.08,1.22,0.10,1.18,-0.29,11.39,100.0,-82
7285,448.385,-0.13,1.17,0.10,1.13,-0.29,11.41,100.0,-82
7286,448.468,-0.09,1.26,0.05,1.22,-0.29,11.43,100.0,-82
7287,448.552,-0.09,1.23,0.10,1.18,-0.34,11.45,100.0,-82
7288,448.635,-0.06,1.22,0.15,1.18,-0.29,11.47,100.0,-82
7290,448.819,-0.10,1.22,0.10,1.18,-0.29,11.47,100.0,-82
7291,448.919,-0.07,1.26,0.15,1.18,-0.44,11.45,100.0,-82
7292,449.019,-0.11,1.23,0.15,1.18,-0.34,11.43,100.0,-82
7293,449.120,-0.11,1.23,0.10,1.18,-0.34,11.41,100.0,-82
7294,449.220,-0.21,1.19,0.15,1.13,-0.34,11.39,100.0,-82
7296,449.403,-0.07,1.20,0.10,1.13,-0.39,11.37,100.0,-82
7297,449.487,-0.14,1.26,0.10,1.22,-0.29,11.37,100.0,-82
7298,449.570,-0.12,1.24,0.10,1.18,-0.39,11.37,100.0,-82
7299,449.654,-0.12,1.24,0.10,1.18,-0.39,11.37,100.0,-82
7300,449.738,-0.06,1.17,0.10,1.13,-0.29,11.37,100.0,-82
7302,449.905,-0.06,1.23,0.05,1.18,-0.34,11.87,100.0,-82
7303,449.988,-0.13,1.28,0.10,1.22,-0.34,11.28,100.0,-82
7304,450.072,-0.10,1.18,0.10,1.13,-0.34,11.28,100.0,-82
7305,450.155,-0.10,1.24,0.10,1.18,-0.39,11.28,100.0,-82
7306,450.239,-0.11,1.17,0.10,1.13,-0.29,11.28,100.0,-82
7307,450.322,-0.09,1.23,0.10,1.18,-0.34,11.28,100.0,-82
7308,450.406,0.02,1.23,0.10,1.18,-0.34,11.39,100.0,-82
7309,450.490,-0.02,1.19,0.15,1.13,-0.34,11.41,100.0,-82
7310,450.573,-0.07,1.26,0.10,1.22,-0.29,11.43,100.0,-82
7311,450.657,-0.07,1.15,0.05,1.13,-0.24,11.45,100.0,-82
7312,450.740,-0.14,1.23,0.15,1.18,-0.34,11.47,100.0,-82
7314,450.924,-0.10,1.23,0.10,1.18,-0.34,11.47,100.0,-82
7315,451.024,-0.12,1.23,0.15,1.18,-0.34,11.45,100.0,-82
7316,451.124,-0.17,1.18,0.10,1.13,-0.34,11.43,100.0,-82
7317,451.224,-0.17,1.22,0.10,1.18,-0.29,11.41,100.0,-82
7318,451.324,-0.17,1.24,0.10,1.18,-0.39,11.39,100.0,-82
7320,451.507,-0.21,1.22,0.10,1.18,-0.29,11.37,100.0,-77
7321,451.591,-0.27,1.23,0.10,1.18,-0.34,11.37,100.0,-77
7322,451.675,-0.21,1.18,0.10,1.13,-0.34,11.37,100.0,-77
7323,451.758,-0.21,1.23,0.10,1.18,-0.34,11.37,100.0,-77
7324,451.842,-0.20,1.22,0.10,1.18,-0.29,11.37,100.0,-77
7326,452.009,-0.12,1.18,0.10,1.13,-0.34,11.87,100.0,-87
7327,452.092,-0.16,1.23,0.10,1.18,-0.34,11.28,100.0,-87
7328,452.176,-0.06,1.23,0.10,1.18,-0.34,11.28,100.0,-87
7329,452.259,-0.06,1.17,0.10,1.13,-0.29,11.28,100.0,-87
7330,452.343,-0.06,1.29,0.10,1.22,-0.39,11.28,100.0,-87
7332,452.510,-0.05,1.22,0.10,1.18,-0.29,11.39,100.0,-86
7333,452.594,-0.03,1.16,0.10,1.13,-0.24,11.41,100.0,-86
7334,452.677,-0.13,1.25,0.15,1.18,-0.39,11.43,100.0,-86
7335,452.761,-0.13,1.22,0.10,1.18,-0.29,11.45,100.0,-86
7336,452.844,-0.13,1.17,0.15,1.13,-0.29,11.47,100.0,-86
7337,452.928,-0.17,1.26,0.05,1.22,-0.29,10.98,100.0,-86
7338,453.011,-0.12,1.19,0.15,1.13,-0.34,11.59,100.0,-84
7339,453.095,-0.15,1.25,0.05,1.22,-0.24,11.59,100.0,-84
7340,453.178,-0.16,1.28,0.10,1.22,-0.34,11.59,100.0,-84
7341,453.262,-0.16,1.17,0.10,1.13,-0.29,11.59,100.0,-84
7344,453.529,-0.07,1.23,0.10,1.18,-0.34,11.47,100.0,-90
7345,453.629,-0.06,1.17,0.05,1.13,-0.29,11.45,100.0,-90
7346,453.730,-0.10,1.17,0.10,1.13,-0.29,11.43,100.0,-90
7347,453.830,-0.10,1.11,0.05,1.08,-0.24,11.41,100.0,-90
