sid,time,altitude,acceleration,acceleration-X,acceleration-Y,acceleration-Z,SPS,Reliability,RSSI
1608,-0.543,0.00,1.08,-0.05,1.08,0.00,0.00,100.0,-63
1609,-0.343,0.01,1.18,0.00,1.18,0.00,0.00,100.0,-63
1610,-0.143,0.01,1.18,0.00,1.18,0.00,0.00,100.0,-63
1611,0.057,0.05,1.18,0.00,1.18,0.00,0.00,100.0,-63
1612,0.257,-0.03,1.18,-0.05,1.18,0.00,0.00,100.0,-63
1613,0.457,-0.03,1.18,-0.05,1.18,0.00,0.00,100.0,-63
1614,0.541,-0.06,1.13,-0.05,1.13,0.00,5.54,100.0,-64
1615,0.624,-0.07,1.18,-0.05,1.18,-0.05,5.14,100.0,-64
1616,0.708,-0.07,1.13,0.00,1.13,-0.05,4.80,100.0,-64
1617,0.792,-0.07,1.13,-0.05,1.13,0.05,4.49,100.0,-64
1618,0.876,-0.08,1.18,-0.05,1.18,-0.05,4.23,100.0,-64
1619,0.959,0.02,1.13,0.00,1.13,0.00,3.99,100.0,-64
1620,1.043,-0.04,1.13,-0.05,1.13,-0.05,7.57,100.0,-64
1621,1.127,0.02,1.13,0.00,1.13,-0.05,7.19,100.0,-64
1622,1.210,-0.01,1.13,0.00,1.13,-0.10,6.84,100.0,-64
1623,1.294,-0.01,1.18,0.00,1.18,0.00,6.53,100.0,-64
1624,1.378,0.08,1.13,0.00,1.13,0.00,6.25,100.0,-64
1625,1.461,0.16,1.18,-0.05,1.18,0.00,5.99,100.0,-64
1626,1.545,0.17,1.18,-0.05,1.18,-0.05,8.62,100.0,-64
1627,1.629,0.06,1.18,-0.05,1.18,0.00,8.29,100.0,-64
1628,1.713,0.03,1.13,0.00,1.13,-0.05,7.98,100.0,-64
1629,1.797,0.03,1.18,-0.05,1.18,0.05,7.69,100.0,-64
1630,1.881,0.06,1.18,0.00,1.18,0.00,7.43,100.0,-64
1631,1.965,0.03,1.18,-0.05,1.18,0.00,7.18,100.0,-64
1632,2.065,0.08,1.18,-0.05,1.18,0.00,9.20,100.0,-58
1633,2.165,-0.02,1.18,0.00,1.18,-0.05,8.86,100.0,-58
1634,2.266,-0.02,1.18,0.00,1.18,-0.05,8.54,100.0,-58
1635,2.366,-0.03,1.18,0.00,1.18,0.00,8.25,100.0,-58
1636,2.466,-0.01,1.18,0.00,1.18,-0.05,7.98,100.0,-58
1637,2.566,-0.01,1.22,0.00,1.22,0.00,7.72,100.0,-58
1638,2.650,-0.02,1.09,-0.15,1.08,-0.10,9.40,100.0,-60
1639,2.734,0.02,1.18,-0.05,1.18,0.00,9.16,100.0,-60
1640,2.817,0.03,1.18,0.00,1.18,0.00,8.93,100.0,-60
1641,2.901,0.03,1.18,-0.05,1.18,0.00,8.71,100.0,-60
1642,2.985,0.05,1.18,-0.05,1.18,-0.05,8.50,100.0,-60
1643,3.068,0.04,1.13,-0.05,1.13,0.00,8.31,100.0,-60
1644,3.152,0.08,1.18,-0.05,1.18,0.00,9.74,100.0,-59
1645,3.236,0.07,1.13,-0.05,1.13,0.00,9.53,100.0,-59
1646,3.320,0.07,1.18,-0.05,1.18,0.00,9.32,100.0,-59
1647,3.403,-0.03,1.13,-0.05,1.13,0.00,9.12,100.0,-59
1648,3.487,-0.05,1.13,0.00,1.13,0.00,8.93,100.0,-59
1649,3.571,-0.05,1.23,-0.05,1.22,-0.05,8.75,100.0,-59
1650,3.655,-0.02,1.13,-0.05,1.13,0.00,10.01,100.0,-64
1651,3.738,-0.06,1.18,-0.05,1.18,0.00,9.81,100.0,-64
1652,3.822,-0.06,1.23,0.00,1.22,-0.10,9.62,100.0,-64
1653,3.906,-0.02,1.18,0.00,1.18,0.00,9.44,100.0,-64
1654,3.990,0.00,1.23,-0.05,1.22,0.05,9.27,100.0,-64
1655,4.073,0.00,1.18,0.00,1.18,0.00,9.10,100.0,-64
1656,4.156,-0.01,1.18,-0.05,1.18,-0.10,10.21,100.0,-75
1657,4.240,0.00,1.18,-0.05,1.18,0.00,10.04,100.0,-75
1658,4.323,0.06,1.13,0.00,1.13,-0.05,9.86,100.0,-75
1659,4.406,0.06,1.18,-0.05,1.18,0.00,9.70,100.0,-75
1660,4.489,0.02,1.18,-0.05,1.18,0.00,9.54,100.0,-75
1661,4.573,0.01,1.18,-0.05,1.18,-0.05,9.38,100.0,-75
1662,4.674,0.04,1.18,-0.10,1.18,-0.05,10.35,100.0,-66
1663,4.774,0.03,1.23,0.00,1.22,-0.05,10.16,100.0,-66
1664,4.875,0.04,1.18,-0.05,1.18,-0.05,9.97,100.0,-66
1665,4.976,0.04,1.13,0.00,1.13,0.00,9.78,100.0,-66
1666,5.077,-0.04,1.13,-0.05,1.13,0.05,9.61,100.0,-66
1667,5.178,0.01,1.18,0.00,1.18,0.05,9.44,100.0,-66
1668,5.262,0.08,1.23,-0.05,1.22,0.00,10.34,100.0,-61
1669,5.345,0.06,1.18,0.00,1.18,-0.05,10.19,100.0,-61
1670,5.429,0.06,1.08,0.00,1.08,-0.10,10.05,100.0,-61
1671,5.513,0.08,1.23,-0.05,1.22,0.05,9.91,100.0,-61
1672,5.596,0.05,1.18,-0.05,1.18,0.05,9.77,100.0,-61
1673,5.680,0.13,1.18,-0.05,1.18,-0.05,9.64,100.0,-61
1674,5.764,0.13,1.23,-0.05,1.22,0.00,10.46,100.0,-64
1675,5.848,0.08,1.18,-0.05,1.18,-0.05,10.33,100.0,-64
1676,5.931,0.08,1.13,0.00,1.13,0.00,10.19,100.0,-64
1677,6.015,0.04,1.18,-0.05,1.18,0.05,10.06,100.0,-64
1678,6.099,0.02,1.18,0.00,1.18,0.00,9.94,100.0,-64
1679,6.182,0.07,1.13,0.00,1.13,0.00,9.81,100.0,-64
1680,6.266,0.08,1.03,-0.05,1.03,-0.10,10.57,100.0,-59
1681,6.349,0.06,1.18,-0.05,1.18,0.05,10.45,100.0,-59
1682,6.432,0.00,1.18,-0.05,1.18,-0.05,10.32,100.0,-59
1683,6.516,0.00,1.18,0.00,1.18,-0.05,10.20,100.0,-59
1684,6.599,-0.05,1.13,-0.05,1.13,0.05,10.08,100.0,-59
1685,6.683,-0.02,1.13,0.00,1.13,0.00,9.96,100.0,-59
1686,6.767,0.03,1.13,-0.05,1.13,-0.05,10.67,100.0,-59
1687,6.851,-0.03,1.13,0.00,1.13,-0.05,10.55,100.0,-59
1688,6.935,0.00,1.18,-0.05,1.18,-0.05,10.43,100.0,-59
1689,7.019,0.00,1.18,0.00,1.18,0.00,10.31,100.0,-59
1690,7.103,-0.01,1.22,0.00,1.22,0.00,10.20,100.0,-59
1691,7.187,0.01,1.18,0.00,1.18,0.00,10.09,100.0,-59
1692,7.287,0.13,1.18,-0.10,1.18,-0.05,10.73,100.0,-66
1693,7.387,0.08,1.18,0.00,1.18,0.00,10.59,100.0,-66
1694,7.487,0.02,1.23,-0.05,1.22,0.00,10.46,100.0,-66
1695,7.587,0.02,1.18,0.00,1.18,-0.05,10.33,100.0,-66
1696,7.687,0.04,1.18,0.00,1.18,0.00,10.21,100.0,-66
1697,7.787,0.01,1.13,-0.05,1.13,0.00,10.08,100.0,-66
1698,7.871,0.05,1.13,-0.10,1.13,0.00,10.70,100.0,-61
1699,7.955,0.01,1.18,0.00,1.18,-0.05,10.59,100.0,-61
1700,8.039,0.01,1.18,-0.05,1.18,0.00,10.49,100.0,-61
1701,8.123,-0.03,1.13,0.00,1.13,-0.05,10.38,100.0,-61
1702,8.207,-0.08,1.18,-0.05,1.18,0.00,10.29,100.0,-61
1703,8.291,-0.01,1.18,-0.05,1.18,-0.10,10.19,100.0,-61
1704,8.375,0.01,1.42,-0.10,1.42,0.00,10.76,100.0,-64
1705,8.459,-0.05,1.13,0.00,1.13,0.00,10.66,100.0,-64
1706,8.543,-0.05,1.13,0.00,1.13,0.05,10.57,100.0,-64
1707,8.627,-0.02,1.67,-0.05,1.67,0.10,10.47,100.0,-64
1708,8.711,-0.08,1.28,-0.05,1.27,0.10,10.60,100.0,-64
1709,8.794,-0.05,1.28,-0.05,1.27,0.10,10.74,100.0,-64
1710,8.878,-0.02,1.08,-0.05,1.08,0.05,11.56,100.0,-53
1711,8.962,-0.07,1.48,-0.10,1.47,0.15,11.72,100.0,-53
1712,9.045,0.00,1.54,-0.10,1.52,0.24,11.88,100.0,-53
1713,9.129,0.00,1.49,-0.05,1.47,0.24,11.18,100.0,-53
1714,9.212,0.01,1.37,0.00,1.37,0.05,11.18,100.0,-53
1715,9.296,0.00,1.23,0.00,1.22,-0.05,11.18,100.0,-53
1716,9.380,-0.05,1.24,0.10,1.22,-0.15,11.88,100.0,-54
1717,9.463,0.10,1.33,0.15,1.32,-0.05,11.88,100.0,-54
1718,9.547,0.18,1.42,0.10,1.42,0.00,11.88,100.0,-54
1719,9.631,0.18,1.43,0.15,1.42,0.00,11.18,100.0,-54
1720,9.715,0.21,1.28,0.15,1.27,-0.05,11.18,100.0,-54
1721,9.798,0.29,1.23,0.10,1.22,0.00,11.18,100.0,-54
1722,9.899,0.31,1.11,0.05,1.08,-0.24,11.85,100.0,-61
1723,9.999,0.46,0.92,0.29,0.83,-0.24,11.83,100.0,-61
1724,10.100,0.54,0.51,0.15,0.39,0.29,11.81,100.0,-61
1725,10.200,0.54,0.69,0.00,0.69,0.00,11.09,100.0,-61
1726,10.300,0.56,0.74,0.05,0.74,0.05,11.07,100.0,-61
1727,10.401,0.60,1.20,0.15,1.18,0.20,11.05,100.0,-61
1728,10.484,0.70,1.20,0.34,1.08,-0.39,11.74,100.0,-60
1729,10.568,-2.10,1.15,0.24,1.13,-0.05,11.74,100.0,-60
1730,10.652,-5.34,1.00,0.20,0.98,-0.05,11.74,100.0,-60
1731,10.735,-5.34,1.00,0.15,0.98,-0.10,11.07,100.0,-60
1732,10.819,-4.11,0.99,0.29,0.93,-0.15,11.09,100.0,-60
1733,10.903,-3.06,1.12,0.20,1.08,-0.24,11.11,100.0,-60
1734,10.986,-3.12,1.39,0.24,1.32,-0.34,11.83,100.0,-54
1735,11.070,-2.00,1.42,0.20,1.37,-0.29,11.85,100.0,-54
1736,11.154,-1.19,1.36,0.29,1.32,-0.10,11.88,100.0,-54
1737,11.237,-1.19,1.11,0.24,1.08,-0.15,11.18,100.0,-54
1738,11.321,-0.63,1.01,0.24,0.98,-0.10,11.18,100.0,-54
1739,11.405,-0.13,0.81,0.20,0.78,-0.05,11.18,100.0,-54
1740,11.489,0.26,1.28,0.10,1.27,0.05,11.88,100.0,-53
1741,11.572,0.51,1.28,0.10,1.27,0.05,11.88,100.0,-53
1742,11.656,0.63,1.28,0.10,1.27,0.10,11.88,100.0,-53
1743,11.740,0.63,1.28,0.15,1.27,0.05,11.18,100.0,-53
1744,11.823,0.76,1.28,0.10,1.27,0.05,11.18,100.0,-53
1745,11.907,0.90,1.23,0.15,1.22,0.05,11.18,100.0,-53
1746,11.991,0.93,1.48,-0.15,1.47,0.10,11.88,100.0,-54
1747,12.074,0.94,1.43,-0.15,1.42,0.05,11.88,100.0,-54
1748,12.158,0.94,1.23,-0.05,1.22,0.15,11.88,100.0,-54
1749,12.242,0.94,1.20,-0.10,1.18,0.20,11.18,100.0,-54
1750,12.325,0.87,0.94,-0.05,0.93,0.10,11.18,100.0,-54
1751,12.409,0.86,1.19,-0.05,1.18,0.20,11.18,100.0,-54
1752,12.510,0.97,1.27,0.00,1.27,-0.05,11.86,100.0,-54
1753,12.610,1.03,1.18,0.00,1.18,0.00,11.83,100.0,-54
1754,12.710,1.03,1.18,0.00,1.18,0.00,11.81,100.0,-54
1755,12.811,0.97,1.14,0.05,1.13,0.15,11.09,100.0,-54
1756,12.911,0.93,1.10,0.00,1.08,0.20,11.07,100.0,-54
1757,13.012,1.00,0.98,-0.05,0.98,0.05,11.05,100.0,-54
1758,13.095,1.02,1.08,0.00,1.08,0.05,11.74,100.0,-53
1759,13.178,0.93,1.18,-0.05,1.18,0.05,11.74,100.0,-53
1760,13.262,0.93,1.23,0.00,1.22,-0.05,11.74,100.0,-53
1761,13.345,0.95,1.18,0.00,1.18,0.00,11.07,100.0,-53
1762,13.428,0.88,1.18,0.00,1.18,-0.05,11.09,100.0,-53
1763,13.512,0.88,1.13,0.05,1.13,0.00,11.12,100.0,-53
1764,13.596,0.89,1.13,0.00,1.13,0.00,11.83,100.0,-54
1765,13.680,0.91,1.08,0.05,1.08,0.00,11.86,100.0,-54
1766,13.764,0.91,1.18,0.00,1.18,-0.10,11.88,100.0,-54
1767,13.848,0.95,1.09,0.00,1.08,-0.15,11.18,100.0,-54
1768,13.931,0.97,1.16,0.00,1.13,-0.29,11.18,100.0,-54
1769,14.015,0.97,1.32,0.00,1.27,-0.34,11.18,100.0,-54
1770,14.099,0.94,1.03,-0.05,1.03,-0.10,11.88,100.0,-56
1771,14.182,0.93,1.18,0.05,1.18,-0.10,11.88,100.0,-56
1772,14.266,1.01,0.98,-0.05,0.98,-0.05,11.88,100.0,-56
1773,14.349,1.01,0.98,0.10,0.98,0.00,11.18,100.0,-56
1774,14.433,1.03,1.13,0.05,1.13,-0.05,11.18,100.0,-56
1775,14.516,1.06,1.18,0.05,1.18,-0.05,11.18,100.0,-56
1776,14.600,1.15,1.13,0.05,1.13,0.05,11.88,100.0,-55
1777,14.684,1.09,1.08,0.10,1.08,0.05,11.88,100.0,-55
1778,14.768,1.05,1.08,0.10,1.08,0.00,11.88,100.0,-55
1779,14.852,1.05,1.08,0.10,1.08,0.00,11.18,100.0,-55
1780,14.936,1.02,1.18,0.05,1.18,0.05,11.18,100.0,-55
1781,15.019,1.09,1.13,0.05,1.13,0.10,11.18,100.0,-55
1782,15.120,1.21,1.13,0.00,1.13,0.00,11.86,100.0,-53
1783,15.220,1.03,1.18,0.05,1.18,0.00,11.83,100.0,-53
1784,15.321,1.03,1.18,0.05,1.18,0.00,11.81,100.0,-53
1785,15.421,1.00,1.18,0.00,1.18,-0.05,11.09,100.0,-53
1786,15.521,1.07,1.13,0.05,1.13,0.05,11.07,100.0,-53
1787,15.622,1.07,1.13,0.05,1.13,0.00,11.05,100.0,-53
1788,15.705,1.11,1.08,0.05,1.08,-0.05,11.74,100.0,-51
1789,15.789,1.04,1.13,0.05,1.13,0.00,11.74,100.0,-51
1790,15.873,1.09,1.23,0.00,1.22,-0.05,11.74,100.0,-51
1791,15.956,1.09,1.22,0.00,1.22,0.00,11.07,100.0,-51
1792,16.040,1.04,1.18,0.00,1.18,0.00,11.09,100.0,-51
1793,16.123,1.05,1.18,0.00,1.18,0.00,11.12,100.0,-51
1794,16.207,0.99,1.13,0.00,1.13,0.00,11.83,100.0,-52
1795,16.291,0.91,1.18,0.00,1.18,-0.05,11.86,100.0,-52
1796,16.374,0.91,1.18,0.05,1.18,-0.05,11.88,100.0,-52
1797,16.458,0.93,1.23,0.05,1.22,0.00,11.18,100.0,-52
1798,16.541,0.97,1.18,0.00,1.18,0.00,11.18,100.0,-52
1799,16.625,0.97,1.23,0.00,1.22,-0.05,11.18,100.0,-52
1800,16.708,0.96,1.13,0.05,1.13,-0.10,11.88,100.0,-53
1801,16.792,0.91,1.13,0.05,1.13,0.00,11.88,100.0,-53
1802,16.876,0.93,1.13,0.05,1.13,0.00,11.88,100.0,-53
1803,16.959,0.93,1.23,0.05,1.22,0.00,11.18,100.0,-53
1804,17.043,0.97,1.37,0.05,1.37,-0.05,11.18,100.0,-53
1805,17.127,0.97,1.32,0.05,1.32,-0.05,11.18,100.0,-53
1806,17.227,1.01,1.13,0.05,1.13,-0.10,11.86,100.0,-51
1807,17.327,0.96,1.18,0.00,1.18,-0.10,11.84,100.0,-51
1808,17.428,0.97,1.19,0.05,1.18,-0.15,11.81,100.0,-51
1809,17.528,0.97,1.23,0.00,1.22,-0.10,11.10,100.0,-51
1810,17.629,1.01,1.18,0.00,1.18,-0.05,11.08,100.0,-51
1811,17.729,1.00,1.23,0.05,1.22,-0.05,11.06,100.0,-51
1812,17.813,1.12,1.18,0.00,1.18,-0.05,11.75,100.0,-50
1813,17.896,1.07,1.13,0.05,1.13,-0.05,11.75,100.0,-50
1814,17.980,1.15,1.13,0.05,1.13,0.05,11.75,100.0,-50
1815,18.064,1.15,1.13,0.00,1.13,0.00,11.05,100.0,-50
1816,18.147,1.08,1.08,0.05,1.08,0.00,11.05,100.0,-50
1817,18.231,1.03,1.13,0.05,1.13,0.00,11.05,100.0,-50
1818,18.315,1.09,1.18,0.00,1.18,-0.05,11.75,100.0,-51
1819,18.398,1.09,1.27,0.00,1.27,0.05,11.75,100.0,-51
1820,18.482,1.09,1.27,0.00,1.27,0.05,11.75,100.0,-51
1821,18.566,1.08,1.23,0.05,1.22,-0.05,11.08,100.0,-51
1822,18.649,1.06,1.18,0.00,1.18,-0.05,11.10,100.0,-51
1823,18.733,1.07,1.18,0.00,1.18,-0.05,11.12,100.0,-51
1824,18.816,1.05,1.13,0.00,1.13,0.00,11.84,100.0,-51
1825,18.900,0.97,1.23,0.00,1.22,-0.05,11.86,100.0,-51
1826,18.984,0.97,1.23,0.00,1.22,-0.05,11.88,100.0,-51
1827,19.067,1.01,1.18,0.00,1.18,-0.05,11.19,100.0,-51
1828,19.151,1.05,1.18,0.05,1.18,0.00,11.19,100.0,-51
1829,19.234,1.05,1.18,0.00,1.18,-0.05,11.19,100.0,-51
1830,19.318,0.98,1.13,0.00,1.13,0.00,11.88,100.0,-49
1831,19.401,1.00,1.18,0.00,1.18,0.00,11.88,100.0,-49
1832,19.485,1.00,1.13,0.00,1.13,0.05,11.88,100.0,-49
1833,19.569,1.03,1.03,0.00,1.03,0.00,11.19,100.0,-49
1834,19.652,1.01,1.13,0.00,1.13,0.00,11.19,100.0,-49
1835,19.736,1.01,1.22,0.00,1.22,0.00,11.19,100.0,-49
1836,19.820,1.03,1.08,0.05,1.08,0.10,11.88,100.0,-51
1837,19.904,0.95,1.13,0.00,1.13,0.10,11.88,100.0,-51
1838,19.987,0.91,1.08,-0.05,1.08,0.05,11.88,100.0,-51
1839,20.071,0.91,1.18,0.00,1.18,0.05,11.19,100.0,-51
1840,20.155,0.98,1.19,0.00,1.18,0.20,11.19,100.0,-51
1841,20.238,0.98,1.18,0.00,1.18,0.05,11.19,100.0,-51
1842,20.339,1.03,0.98,0.00,0.98,0.05,11.86,100.0,-48
1843,20.439,1.00,1.03,0.00,1.03,0.00,11.84,100.0,-48
1844,20.539,1.00,1.03,-0.05,1.03,0.05,11.82,100.0,-48
1845,20.640,0.91,1.13,0.00,1.13,0.10,11.10,100.0,-48
1846,20.740,0.94,1.03,0.00,1.03,0.00,11.08,100.0,-48
1847,20.840,0.94,0.93,0.00,0.93,0.00,11.06,100.0,-48
1848,20.924,0.97,1.08,0.00,1.08,0.10,11.75,100.0,-53
1849,21.008,0.96,1.18,0.00,1.18,0.05,11.75,100.0,-53
1850,21.091,0.97,1.28,0.00,1.27,0.15,11.75,100.0,-53
1851,21.175,0.97,1.13,0.05,1.13,0.10,11.08,100.0,-53
1852,21.259,0.91,1.13,0.05,1.13,0.10,11.10,100.0,-53
1853,21.342,0.90,1.03,0.00,1.03,0.05,11.12,100.0,-53
1854,21.426,1.00,1.14,0.20,1.13,-0.05,11.84,100.0,-55
1855,21.510,0.92,1.18,0.15,1.18,0.00,11.86,100.0,-55
1856,21.593,0.80,1.18,0.05,1.18,-0.10,11.89,100.0,-55
1857,21.677,0.80,1.18,0.10,1.18,0.10,11.19,100.0,-55
1858,21.761,0.78,1.04,0.15,1.03,0.00,11.19,100.0,-55
1859,21.844,0.84,1.17,0.29,1.13,0.05,11.19,100.0,-55
1860,21.928,0.90,0.95,0.15,0.93,-0.15,11.88,100.0,-56
1861,22.011,0.84,1.01,0.24,0.98,-0.10,11.88,100.0,-56
1862,22.095,0.89,1.17,0.29,1.13,-0.05,11.88,100.0,-56
1863,22.178,0.89,1.23,0.34,1.18,-0.15,11.19,100.0,-56
1864,22.262,0.84,1.20,0.24,1.18,-0.05,11.19,100.0,-56
1865,22.345,0.86,1.16,0.24,1.13,-0.10,11.19,100.0,-56
1866,22.445,0.87,1.19,0.05,1.18,-0.15,11.86,100.0,-74
1867,22.546,0.87,1.21,0.15,1.18,-0.24,11.84,100.0,-74
1868,22.646,0.77,1.24,0.10,1.22,-0.15,11.82,100.0,-74
1869,22.746,0.77,1.14,0.10,1.13,-0.15,11.10,100.0,-74
1870,22.846,0.78,1.08,0.10,1.08,-0.05,11.08,100.0,-74
1871,22.947,0.83,1.13,0.10,1.13,-0.05,11.06,100.0,-74
1872,23.030,0.85,1.09,0.10,1.08,-0.15,11.75,100.0,-72
1873,23.114,0.85,1.15,0.15,1.13,-0.15,11.75,100.0,-72
1874,23.197,0.85,1.19,0.15,1.18,-0.10,11.75,100.0,-72
1875,23.281,0.85,1.15,0.20,1.13,-0.10,11.06,100.0,-72
1876,23.365,0.75,1.14,0.15,1.13,-0.05,11.06,100.0,-72
1877,23.448,0.73,1.19,0.15,1.18,-0.10,11.06,100.0,-72
1878,23.532,0.85,1.18,0.10,1.18,-0.05,11.75,100.0,-66
1879,23.616,0.81,1.19,0.15,1.18,-0.10,11.75,100.0,-66
1880,23.699,0.79,1.14,0.15,1.13,-0.05,11.75,100.0,-66
1881,23.783,0.79,1.10,0.20,1.08,-0.05,11.08,100.0,-66
1882,23.867,0.79,1.09,0.15,1.08,-0.05,11.10,100.0,-66
1883,23.950,0.72,1.04,0.15,1.03,0.05,11.12,100.0,-66
1884,24.034,0.72,1.18,0.10,1.18,0.00,11.84,100.0,-65
1885,24.118,0.69,1.14,0.15,1.13,0.00,11.87,100.0,-65
1886,24.201,0.69,1.09,0.15,1.08,0.05,11.89,100.0,-65
1887,24.285,0.71,1.04,0.15,1.03,0.05,11.19,100.0,-65
1888,24.369,0.71,1.14,0.20,1.13,0.00,11.19,100.0,-65
1889,24.452,0.76,1.18,0.15,1.18,0.00,11.19,100.0,-65
1890,24.536,0.79,1.09,0.15,1.08,0.05,11.89,100.0,-70
1891,24.620,0.80,1.05,0.20,1.03,0.05,11.89,100.0,-70
1892,24.703,0.75,1.10,0.20,1.08,0.05,11.89,100.0,-70
1893,24.787,0.75,1.08,0.10,1.08,0.05,11.19,100.0,-70
1894,24.871,0.73,1.09,0.15,1.08,0.00,11.19,100.0,-70
1895,24.954,0.70,1.14,0.20,1.13,0.05,11.19,100.0,-70
1896,25.055,0.65,1.05,0.20,1.03,0.00,11.86,100.0,-61
1897,25.155,0.65,1.06,0.24,1.03,0.00,11.84,100.0,-61
1898,25.256,0.65,1.11,0.24,1.08,-0.05,11.82,100.0,-61
1899,25.356,0.63,1.20,0.24,1.18,0.00,11.10,100.0,-61
1900,25.456,0.64,1.15,0.24,1.13,0.00,11.08,100.0,-61
1901,25.557,0.64,1.14,0.15,1.13,0.00,11.06,100.0,-61
1902,25.640,0.73,1.14,0.15,1.13,-0.05,11.75,100.0,-49
1903,25.724,0.70,1.14,0.15,1.13,0.00,11.75,100.0,-49
1904,25.808,0.65,1.19,0.15,1.18,0.05,11.75,100.0,-49
1905,25.891,0.65,1.19,0.15,1.18,0.05,11.08,100.0,-49
1906,25.975,0.64,1.19,0.20,1.18,0.05,11.10,100.0,-49
1907,26.059,0.67,1.23,0.10,1.22,0.05,11.12,100.0,-49
1908,26.142,0.71,1.08,0.05,1.08,-0.05,11.84,100.0,-50
1909,26.226,0.71,1.08,0.10,1.08,-0.05,11.86,100.0,-50
1910,26.310,0.75,1.13,0.10,1.13,-0.05,11.89,100.0,-50
1911,26.393,0.75,1.08,0.10,1.08,0.00,11.19,100.0,-50
1912,26.477,0.70,1.08,0.10,1.08,-0.05,11.19,100.0,-50
1913,26.561,0.74,1.13,0.10,1.13,0.05,11.19,100.0,-50
1914,26.644,0.82,1.18,0.05,1.18,0.00,11.89,100.0,-56
1915,26.728,0.78,1.18,0.00,1.18,-0.05,11.89,100.0,-56
1916,26.812,0.78,1.18,0.05,1.18,0.00,11.89,100.0,-56
1917,26.895,0.78,1.23,0.10,1.22,0.00,11.19,100.0,-56
1918,26.979,0.80,1.14,0.10,1.13,0.15,11.19,100.0,-56
1919,27.063,0.80,1.09,0.10,1.08,0.10,11.19,100.0,-56
1920,27.146,0.82,0.94,0.10,0.93,0.05,11.89,100.0,-57
1921,27.230,0.85,1.09,0.05,1.08,0.15,11.89,100.0,-57
1922,27.314,0.71,0.99,0.10,0.98,0.10,11.89,100.0,-57
1923,27.398,0.71,1.04,0.05,1.03,0.15,11.19,100.0,-57
1924,27.481,0.73,1.13,0.05,1.13,0.10,11.19,100.0,-57
1925,27.565,0.83,1.10,0.05,1.08,0.20,11.19,100.0,-57
1926,27.665,0.94,1.08,0.05,1.08,0.00,11.86,100.0,-61
1927,27.766,0.90,1.09,0.10,1.08,0.10,11.84,100.0,-61
1928,27.866,0.90,1.18,0.10,1.18,0.05,11.82,100.0,-61
1929,27.966,0.92,1.13,0.05,1.13,0.05,11.10,100.0,-61
1930,28.067,0.95,1.13,0.05,1.13,0.00,11.08,100.0,-61
1931,28.167,0.90,1.13,0.05,1.13,-0.05,11.06,100.0,-61
1932,28.250,0.90,1.13,0.05,1.13,0.05,11.75,100.0,-63
1933,28.334,0.98,1.13,0.05,1.13,0.10,11.75,100.0,-63
1934,28.418,1.04,1.08,0.10,1.08,0.00,11.75,100.0,-63
1935,28.502,1.04,1.03,0.10,1.03,0.05,11.06,100.0,-63
1936,28.585,0.97,1.03,0.10,1.03,0.05,11.06,100.0,-63
1937,28.669,0.93,1.04,0.15,1.03,0.05,11.06,100.0,-63
1938,28.753,0.94,1.18,0.00,1.18,0.10,11.75,100.0,-52
1939,28.836,0.86,1.18,0.05,1.18,0.05,11.75,100.0,-52
1940,28.920,0.86,1.18,0.00,1.18,0.10,11.75,100.0,-52
1941,29.004,0.79,1.13,0.00,1.13,0.10,11.08,100.0,-52
1942,29.087,0.80,1.08,0.00,1.08,0.10,11.10,100.0,-52
1943,29.171,0.80,1.03,0.00,1.03,0.00,11.12,100.0,-52
1944,29.255,0.92,1.05,0.00,1.03,0.20,11.84,100.0,-55
1945,29.338,0.97,1.05,0.00,1.03,0.20,11.86,100.0,-55
1946,29.422,0.97,1.14,-0.05,1.13,0.15,11.89,100.0,-55
1947,29.506,0.91,1.10,0.00,1.08,0.20,11.19,100.0,-55
1948,29.589,0.88,1.14,0.05,1.13,0.15,11.19,100.0,-55
1949,29.673,0.88,1.05,-0.05,1.03,0.20,11.19,100.0,-55
1950,29.757,0.88,0.67,0.10,0.64,0.20,11.89,100.0,-49
1951,29.840,0.89,0.71,0.20,0.59,0.34,11.89,100.0,-49
1952,29.924,0.90,0.83,0.20,0.74,0.34,11.89,100.0,-49
1953,30.008,0.90,0.76,0.34,0.59,0.34,11.19,100.0,-49
1954,30.091,0.90,0.79,0.34,0.59,0.39,11.19,100.0,-49
1955,30.175,0.91,0.90,0.10,0.78,0.44,11.19,100.0,-49
1956,30.275,0.98,1.02,0.20,0.74,0.69,11.86,100.0,-51
1957,30.376,0.93,0.83,0.24,0.54,0.59,11.84,100.0,-51
1958,30.476,0.96,0.72,0.20,0.49,0.49,11.82,100.0,-51
1959,30.576,0.96,0.77,0.34,0.49,0.49,11.10,100.0,-51
1960,30.677,0.98,0.77,0.24,0.54,0.49,11.08,100.0,-51
1961,30.777,1.03,0.89,0.20,0.64,0.59,11.06,100.0,-51
1962,30.861,1.13,0.68,0.64,0.24,0.00,11.75,100.0,-54
1963,30.944,1.13,0.83,0.74,0.39,0.00,11.75,100.0,-54
1964,31.028,1.13,0.81,0.74,0.34,0.00,11.75,100.0,-54
1965,31.112,1.12,0.98,0.88,0.39,0.15,11.08,100.0,-54
1966,31.196,1.22,0.92,0.83,0.39,0.00,11.10,100.0,-54
1967,31.279,1.32,1.01,0.74,0.69,0.10,11.12,100.0,-54
1968,31.363,1.38,1.09,0.93,0.44,-0.34,11.84,100.0,-70
1969,31.446,1.37,1.02,0.88,0.44,-0.24,11.86,100.0,-70
1970,31.530,1.42,0.97,0.83,0.44,-0.24,11.88,100.0,-70
1971,31.614,1.42,1.00,0.88,0.44,-0.15,11.18,100.0,-70
1972,31.697,1.35,0.95,0.83,0.44,-0.10,11.18,100.0,-70
1973,31.781,1.38,0.92,0.83,0.39,0.00,11.18,100.0,-70
1974,31.865,1.43,0.86,0.78,-0.05,-0.34,11.88,100.0,-71
1975,31.948,1.37,0.87,0.83,-0.05,-0.24,11.88,100.0,-71
1976,32.032,1.38,0.98,0.88,-0.20,-0.39,11.88,100.0,-71
1977,32.116,1.38,1.00,0.88,-0.24,-0.39,11.18,100.0,-71
1978,32.200,1.43,0.99,0.93,-0.05,-0.34,11.18,100.0,-71
1979,32.283,1.49,0.98,0.93,0.00,-0.29,11.18,100.0,-71
1980,32.383,1.49,0.97,0.88,0.00,-0.39,11.86,100.0,-68
1981,32.484,1.46,1.06,1.03,0.05,-0.24,11.84,100.0,-68
1982,32.584,1.46,1.00,0.98,0.00,-0.20,11.81,100.0,-68
1983,32.684,1.46,1.18,1.13,0.05,-0.34,11.10,100.0,-68
1984,32.784,1.41,1.15,1.08,0.00,-0.39,11.08,100.0,-68
1985,32.885,1.46,1.10,0.98,0.00,-0.49,11.06,100.0,-68
1986,32.968,1.56,0.79,0.78,0.05,0.00,11.75,100.0,-65
1987,33.052,1.46,0.79,0.78,0.05,0.00,11.75,100.0,-65
1988,33.136,1.46,0.89,0.88,0.05,0.10,11.75,100.0,-65
1989,33.220,1.39,0.84,0.83,0.05,0.05,11.06,100.0,-65
1990,33.303,1.34,0.84,0.83,0.10,0.00,11.06,100.0,-65
1991,33.387,1.43,0.85,0.83,0.15,0.00,11.06,100.0,-65
1992,33.471,1.48,0.87,0.83,0.24,0.00,11.75,100.0,-66
1993,33.554,1.51,1.01,0.88,0.49,0.00,11.75,100.0,-66
1994,33.638,1.51,0.99,0.83,0.49,0.20,11.75,100.0,-66
1995,33.722,1.52,1.00,0.93,0.34,-0.15,11.08,100.0,-66
1996,33.806,1.50,0.92,0.88,0.24,-0.05,11.10,100.0,-66
1997,33.889,1.50,1.05,1.03,0.20,-0.10,11.12,100.0,-66
1998,33.972,1.59,0.83,0.69,-0.15,-0.44,11.84,100.0,-75
1999,34.056,1.56,0.73,0.69,0.00,-0.24,11.86,100.0,-75
2000,34.139,1.57,0.76,0.74,0.00,-0.20,11.89,100.0,-75
2001,34.222,1.57,0.99,0.98,0.00,-0.15,11.19,100.0,-75
2002,34.305,1.56,0.93,0.88,-0.05,-0.29,11.19,100.0,-75
2003,34.388,1.53,0.93,0.83,-0.10,-0.39,11.19,100.0,-75
2004,34.489,1.59,0.84,0.74,0.10,-0.39,11.86,100.0,-72
2005,34.590,1.54,0.83,0.78,0.10,-0.24,11.84,100.0,-72
2006,34.691,1.58,1.00,0.88,0.15,-0.44,11.82,100.0,-72
2007,34.792,1.58,1.04,0.93,0.15,-0.44,11.10,100.0,-72
2008,34.893,1.53,1.04,0.83,0.20,-0.59,11.08,100.0,-72
2009,34.994,1.52,0.97,0.74,0.24,-0.59,11.05,100.0,-72
2010,35.077,1.56,0.82,0.74,0.10,-0.34,11.75,100.0,-76
2011,35.161,1.54,0.86,0.78,0.10,-0.34,11.75,100.0,-76
2012,35.245,1.56,0.99,0.93,0.15,-0.29,11.75,100.0,-76
2013,35.328,1.56,1.01,0.93,0.20,-0.34,11.05,100.0,-76
2014,35.412,1.54,1.04,0.98,0.20,-0.29,11.05,100.0,-76
2015,35.496,1.57,1.01,0.98,0.05,-0.24,11.05,100.0,-76
2016,35.579,1.61,1.02,0.83,0.24,-0.54,11.75,100.0,-72
2017,35.663,1.60,1.05,0.93,0.20,-0.44,11.75,100.0,-72
2018,35.747,1.56,0.90,0.83,0.20,-0.29,11.75,100.0,-72
2019,35.830,1.56,0.87,0.83,0.10,-0.24,11.06,100.0,-72
2020,35.914,1.54,0.95,0.88,0.20,-0.29,11.06,100.0,-72
2021,35.997,1.53,1.01,0.93,0.24,-0.29,11.06,100.0,-72
2022,36.081,1.57,0.91,0.83,0.10,-0.34,11.75,100.0,-75
2023,36.165,1.58,0.90,0.88,0.05,-0.15,11.75,100.0,-75
2024,36.249,1.56,0.95,0.93,0.15,-0.15,11.75,100.0,-75
2025,36.333,1.56,0.94,0.88,0.20,-0.24,11.07,100.0,-75
2026,36.418,1.57,0.99,0.93,0.15,-0.29,11.10,100.0,-75
2027,36.502,1.58,1.00,0.93,0.15,-0.34,11.12,100.0,-75
2028,36.585,1.64,0.87,0.74,0.24,-0.39,11.83,100.0,-79
2029,36.668,1.57,0.86,0.78,0.24,-0.24,11.86,100.0,-79
2030,36.751,1.48,0.89,0.83,0.10,-0.29,11.88,100.0,-79
2031,36.835,1.48,0.88,0.78,0.10,-0.39,11.18,100.0,-79
2032,36.918,1.49,0.99,0.88,0.10,-0.44,11.18,100.0,-79
2033,37.001,1.54,0.97,0.88,0.20,-0.34,11.18,100.0,-79
2034,37.102,1.55,0.95,0.88,0.20,-0.29,11.86,100.0,-82
2035,37.202,1.51,0.96,0.88,0.29,-0.24,11.84,100.0,-82
2036,37.302,1.46,0.93,0.83,0.29,-0.29,11.81,100.0,-82
2037,37.402,1.46,0.95,0.83,0.34,-0.29,11.10,100.0,-82
2038,37.503,1.43,1.00,0.83,0.34,-0.44,11.08,100.0,-82
2039,37.603,1.42,1.04,0.88,0.24,-0.49,11.06,100.0,-82
2040,37.687,1.45,1.03,0.78,0.39,-0.54,11.75,100.0,-86
2041,37.770,1.38,1.00,0.78,0.39,-0.49,11.75,100.0,-86
2042,37.854,1.31,0.97,0.74,0.34,-0.54,11.75,100.0,-86
2043,37.938,1.31,1.00,0.83,0.24,-0.49,11.06,100.0,-86
2044,38.021,1.21,1.05,0.98,0.15,-0.34,11.06,100.0,-86
2045,38.105,1.21,1.07,1.03,0.15,-0.24,11.06,100.0,-86
2046,38.189,1.26,1.03,0.98,0.20,-0.24,11.75,100.0,-80
2047,38.272,1.21,0.99,0.93,0.24,-0.24,11.75,100.0,-80
2048,38.356,1.16,0.96,0.88,0.29,-0.24,11.75,100.0,-80
2049,38.440,1.16,1.00,0.93,0.20,-0.29,11.06,100.0,-80
2050,38.523,1.13,1.01,0.93,0.20,-0.34,11.06,100.0,-80
2051,38.607,1.07,1.01,0.88,0.20,-0.44,11.06,100.0,-80
2052,38.691,1.18,0.88,0.83,0.15,-0.24,11.75,100.0,-76
2053,38.774,1.18,1.01,0.98,0.20,-0.15,11.75,100.0,-76
2054,38.858,1.15,1.05,0.98,0.29,-0.24,11.75,100.0,-76
2055,38.942,1.15,1.03,0.98,0.29,-0.15,11.08,100.0,-76
2056,39.025,1.09,1.03,0.98,0.29,-0.10,11.10,100.0,-76
2057,39.109,1.09,0.95,0.88,0.34,-0.10,11.12,100.0,-76
2058,39.209,1.14,1.08,0.98,0.29,-0.34,11.82,100.0,-74
2059,39.310,1.01,1.10,0.98,0.39,-0.29,11.82,100.0,-74
2060,39.410,0.96,1.11,0.98,0.39,-0.34,11.82,100.0,-74
2061,39.510,0.96,1.02,0.93,0.29,-0.29,11.10,100.0,-74
2062,39.611,0.90,1.01,0.88,0.29,-0.39,11.08,100.0,-74
2063,39.711,0.89,0.94,0.83,0.20,-0.39,11.06,100.0,-74
2064,39.795,0.91,1.00,0.83,0.49,-0.24,11.75,100.0,-75
2065,39.878,0.86,0.95,0.88,0.34,-0.10,11.75,100.0,-75
2066,39.962,0.88,0.93,0.88,0.24,-0.15,11.75,100.0,-75
2067,40.046,0.88,0.96,0.93,0.20,-0.15,11.06,100.0,-75
2068,40.129,0.91,0.94,0.88,0.24,-0.20,11.06,100.0,-75
2069,40.213,0.87,0.97,0.88,0.29,-0.29,11.06,100.0,-75
2070,40.297,0.94,1.00,0.88,0.15,-0.44,11.75,100.0,-75
2071,40.380,0.94,1.01,0.88,0.29,-0.39,11.75,100.0,-75
2072,40.464,0.94,0.97,0.88,0.20,-0.34,11.75,100.0,-75
2073,40.548,0.94,1.00,0.93,0.20,-0.29,11.06,100.0,-75
2074,40.631,0.91,0.97,0.93,0.10,-0.24,11.06,100.0,-75
2075,40.715,0.98,0.93,0.88,0.15,-0.24,11.06,100.0,-75
2076,40.799,1.04,0.97,0.88,0.20,-0.34,11.75,100.0,-77
2077,40.882,0.99,1.07,0.98,0.20,-0.39,11.75,100.0,-77
2078,40.966,0.98,1.01,0.93,0.20,-0.34,11.75,100.0,-77
2079,41.050,0.98,0.97,0.88,0.20,-0.34,11.08,100.0,-77
2080,41.133,0.87,0.94,0.88,0.15,-0.29,11.10,100.0,-77
2081,41.217,0.91,0.95,0.83,0.24,-0.39,11.12,100.0,-77
2082,41.317,1.00,0.96,0.88,0.15,-0.34,11.81,100.0,-76
2083,41.418,0.97,1.03,0.98,0.15,-0.29,11.81,100.0,-76
2084,41.518,0.94,0.98,0.88,0.24,-0.34,11.81,100.0,-76
2085,41.618,0.94,1.00,0.93,0.15,-0.34,11.10,100.0,-76
2086,41.719,0.95,1.01,0.93,0.20,-0.34,11.08,100.0,-76
2087,41.819,0.97,0.95,0.88,0.20,-0.29,11.06,100.0,-76
2088,41.903,1.03,0.95,0.88,0.24,-0.24,11.75,100.0,-71
2089,41.987,1.00,0.99,0.93,0.24,-0.24,11.75,100.0,-71
2090,42.071,0.99,0.96,0.88,0.24,-0.29,11.75,100.0,-71
2091,42.155,0.99,0.97,0.88,0.20,-0.34,11.05,100.0,-71
2092,42.239,0.98,0.92,0.88,0.10,-0.24,11.05,100.0,-71
2093,42.323,0.99,0.96,0.88,0.24,-0.29,11.05,100.0,-71
2094,42.407,1.00,0.97,0.88,0.20,-0.34,11.74,100.0,-71
2095,42.490,0.96,0.99,0.93,0.15,-0.29,11.75,100.0,-71
2096,42.573,1.01,0.97,0.88,0.20,-0.34,11.75,100.0,-71
2097,42.656,1.01,0.96,0.88,0.24,-0.29,11.05,100.0,-71
2098,42.740,0.94,0.95,0.83,0.29,-0.34,11.05,100.0,-71
2099,42.823,0.98,1.01,0.93,0.20,-0.34,11.05,100.0,-71
2100,42.907,1.05,0.96,0.88,0.24,-0.29,11.74,100.0,-67
2101,42.990,1.02,0.94,0.88,0.20,-0.24,11.74,100.0,-67
2102,43.074,1.00,0.94,0.88,0.24,-0.20,11.74,100.0,-67
2103,43.158,1.00,0.94,0.88,0.20,-0.24,11.07,100.0,-67
2104,43.241,0.94,0.98,0.93,0.20,-0.24,11.10,100.0,-67
2105,43.325,0.89,0.94,0.88,0.20,-0.24,11.12,100.0,-67
2106,43.409,1.00,0.90,0.83,0.15,-0.29,11.84,100.0,-71
2107,43.492,0.95,0.92,0.88,0.20,-0.15,11.86,100.0,-71
2108,43.576,0.90,0.98,0.93,0.20,-0.24,11.88,100.0,-71
2109,43.660,0.90,1.01,0.93,0.24,-0.29,11.19,100.0,-71
2110,43.743,0.88,0.97,0.88,0.29,-0.29,11.19,100.0,-71
2111,43.827,0.85,1.00,0.93,0.15,-0.34,11.19,100.0,-71
2112,43.927,0.95,0.94,0.83,0.20,-0.39,11.86,100.0,-73
2113,44.027,0.93,0.94,0.88,0.20,-0.24,11.84,100.0,-73
2114,44.127,0.92,0.98,0.93,0.20,-0.24,11.82,100.0,-73
2115,44.228,0.92,0.95,0.88,0.20,-0.29,11.10,100.0,-73
2116,44.328,0.97,0.95,0.88,0.24,-0.24,11.08,100.0,-73
2117,44.428,0.96,1.07,0.98,0.24,-0.34,11.06,100.0,-73
2118,44.512,0.96,0.93,0.83,0.15,-0.39,11.75,100.0,-98
2119,44.595,0.95,0.96,0.93,0.15,-0.20,11.75,100.0,-98
2120,44.679,0.97,0.94,0.88,0.20,-0.24,11.75,100.0,-98
2121,44.763,0.97,0.99,0.93,0.24,-0.24,11.06,100.0,-98
2122,44.846,0.94,1.00,0.93,0.20,-0.29,11.06,100.0,-98
2123,44.930,0.99,0.97,0.88,0.29,-0.29,11.06,100.0,-98
2124,45.014,0.97,0.92,0.83,0.24,-0.29,11.75,100.0,-86
2125,45.097,0.98,0.96,0.93,0.15,-0.20,11.75,100.0,-86
2126,45.181,1.02,0.94,0.88,0.20,-0.24,11.75,100.0,-86
2127,45.265,1.02,0.96,0.88,0.24,-0.29,11.06,100.0,-86
2128,45.348,1.01,1.05,0.98,0.24,-0.29,11.06,100.0,-86
2129,45.432,1.01,0.94,0.88,0.20,-0.24,11.06,100.0,-86
2130,45.516,1.01,0.94,0.88,0.20,-0.24,11.75,100.0,-67
2131,45.599,1.02,0.89,0.83,0.24,-0.20,11.75,100.0,-67
2132,45.683,1.08,1.00,0.93,0.20,-0.29,11.75,100.0,-67
2133,45.767,1.08,1.00,0.93,0.20,-0.29,11.08,100.0,-67
2134,45.850,1.11,0.97,0.88,0.20,-0.34,11.10,100.0,-67
2135,45.934,1.12,0.95,0.88,0.20,-0.29,11.12,100.0,-67
2136,46.034,1.12,0.99,0.93,0.15,-0.29,11.82,100.0,-77
2137,46.135,1.08,1.00,0.83,0.24,-0.49,11.82,100.0,-77
2138,46.235,1.07,0.93,0.83,0.24,-0.34,11.82,100.0,-77
2139,46.335,1.07,0.95,0.93,0.10,-0.15,11.10,100.0,-77
2140,46.436,1.00,0.97,0.93,0.15,-0.24,11.08,100.0,-77
2141,46.536,0.96,0.99,0.88,0.29,-0.34,11.06,100.0,-77
2142,46.620,0.98,0.96,0.88,0.15,-0.34,11.75,100.0,-71
2143,46.703,0.92,0.97,0.88,0.20,-0.34,11.75,100.0,-71
2144,46.787,0.96,0.94,0.88,0.20,-0.24,11.75,100.0,-71
2145,46.871,0.96,0.98,0.93,0.20,-0.24,11.06,100.0,-71
2146,46.954,0.95,0.96,0.93,0.15,-0.20,11.06,100.0,-71
2147,47.038,0.94,0.91,0.88,0.10,-0.20,11.06,100.0,-71
2148,47.122,1.03,0.99,0.93,0.15,-0.29,11.75,100.0,-75
2149,47.205,1.09,0.95,0.88,0.20,-0.29,11.75,100.0,-75
2150,47.289,1.08,0.95,0.88,0.20,-0.29,11.75,100.0,-75
2151,47.373,1.08,0.98,0.93,0.20,-0.24,11.06,100.0,-75
2152,47.456,0.97,0.97,0.88,0.20,-0.34,11.06,100.0,-75
2153,47.540,1.01,0.98,0.88,0.24,-0.34,11.06,100.0,-75
2154,47.624,1.05,0.93,0.88,0.10,-0.29,11.75,100.0,-65
2155,47.707,1.04,0.93,0.88,0.15,-0.24,11.75,100.0,-65
2156,47.791,1.00,0.92,0.88,0.15,-0.20,11.75,100.0,-65
2157,47.875,1.00,0.96,0.93,0.15,-0.20,11.08,100.0,-65
2158,47.958,0.98,0.90,0.83,0.15,-0.29,11.10,100.0,-65
2159,48.042,0.99,0.93,0.88,0.15,-0.24,11.12,100.0,-65
2160,48.142,1.03,0.94,0.88,0.15,-0.29,11.82,100.0,-75
2161,48.243,1.02,0.94,0.88,0.15,-0.29,11.82,100.0,-75
2162,48.343,0.93,0.93,0.83,0.24,-0.34,11.82,100.0,-75
2163,48.443,0.93,1.01,0.93,0.24,-0.29,11.10,100.0,-75
2164,48.544,0.94,0.89,0.83,0.20,-0.24,11.08,100.0,-75
2165,48.644,0.94,0.88,0.83,0.15,-0.24,11.06,100.0,-75
2166,48.728,0.94,0.91,0.83,0.15,-0.34,11.75,100.0,-70
2167,48.811,0.91,0.94,0.88,0.20,-0.24,11.75,100.0,-70
2168,48.895,0.97,0.99,0.93,0.24,-0.24,11.75,100.0,-70
2169,48.979,0.97,0.95,0.88,0.24,-0.24,11.06,100.0,-70
2170,49.062,0.92,0.97,0.93,0.20,-0.20,11.06,100.0,-70
2171,49.146,0.91,0.94,0.88,0.20,-0.24,11.06,100.0,-70
2172,49.230,0.95,0.94,0.83,0.20,-0.39,11.75,100.0,-67
2173,49.313,0.91,0.98,0.93,0.20,-0.24,11.75,100.0,-67
2174,49.397,0.87,0.96,0.88,0.24,-0.29,11.75,100.0,-67
2175,49.481,0.87,0.94,0.88,0.15,-0.29,11.06,100.0,-67
2176,49.564,0.92,0.96,0.88,0.15,-0.34,11.06,100.0,-67
2177,49.648,0.88,1.00,0.93,0.20,-0.29,11.06,100.0,-67
2178,49.732,0.91,0.97,0.88,0.20,-0.34,11.75,100.0,-68
2179,49.815,0.95,0.95,0.88,0.20,-0.29,11.75,100.0,-68
2180,49.899,0.97,0.96,0.93,0.15,-0.20,11.75,100.0,-68
2181,49.983,0.97,0.94,0.88,0.20,-0.24,11.08,100.0,-68
2182,50.066,0.93,0.97,0.88,0.20,-0.34,11.10,100.0,-68
2183,50.150,0.98,0.96,0.88,0.15,-0.34,11.12,100.0,-68
2184,50.234,1.06,0.91,0.83,0.15,-0.34,11.84,100.0,-70
2185,50.317,1.01,0.93,0.88,0.15,-0.24,11.86,100.0,-70
2186,50.401,1.00,0.93,0.88,0.15,-0.24,11.89,100.0,-70
2187,50.485,1.00,0.92,0.88,0.10,-0.24,11.19,100.0,-70
2188,50.568,0.99,0.99,0.93,0.15,-0.29,11.19,100.0,-70
2189,50.652,0.99,1.09,1.03,0.15,-0.34,11.19,100.0,-70
2190,50.752,0.99,0.96,0.88,0.15,-0.34,11.86,100.0,-68
2191,50.853,1.02,0.95,0.88,0.10,-0.34,11.84,100.0,-68
2192,50.953,0.98,0.99,0.93,0.15,-0.29,11.82,100.0,-68
2193,51.053,0.98,0.94,0.88,0.15,-0.29,11.10,100.0,-68
2194,51.154,0.93,0.95,0.88,0.20,-0.29,11.08,100.0,-68
2195,51.254,0.94,0.97,0.88,0.20,-0.34,11.06,100.0,-68
2196,51.338,1.08,0.88,0.78,0.20,-0.34,11.75,100.0,-65
2197,51.421,1.04,1.01,0.93,0.24,-0.29,11.75,100.0,-65
2198,51.505,1.05,0.89,0.83,0.20,-0.24,11.75,100.0,-65
2199,51.589,1.05,0.95,0.88,0.24,-0.24,11.06,100.0,-65
2200,51.672,1.02,0.96,0.93,0.15,-0.20,11.06,100.0,-65
2201,51.756,0.96,0.93,0.88,0.15,-0.24,11.06,100.0,-65
2202,51.839,1.04,0.88,0.83,0.15,-0.24,11.75,100.0,-77
2203,51.923,1.02,0.96,0.93,0.15,-0.20,11.75,100.0,-77
2204,52.007,1.00,0.93,0.88,0.15,-0.24,11.75,100.0,-77
2205,52.090,1.00,1.00,0.93,0.15,-0.34,11.06,100.0,-77
2206,52.174,0.99,0.92,0.88,0.10,-0.24,11.06,100.0,-77
2207,52.257,1.07,0.90,0.83,0.20,-0.29,11.06,100.0,-77
2208,52.341,1.06,0.94,0.88,0.15,-0.29,11.75,100.0,-79
2209,52.425,1.00,0.94,0.88,0.15,-0.29,11.75,100.0,-79
2210,52.509,0.95,0.99,0.93,0.15,-0.29,11.75,100.0,-79
2211,52.592,0.95,0.98,0.88,0.24,-0.34,11.08,100.0,-79
2212,52.676,0.95,0.96,0.88,0.29,-0.24,11.10,100.0,-79
2213,52.760,1.00,0.93,0.88,0.15,-0.24,11.12,100.0,-79
2214,52.860,1.07,0.91,0.83,0.10,-0.34,11.82,100.0,-82
2215,52.960,1.00,0.92,0.88,0.15,-0.20,11.82,100.0,-82
2216,53.061,0.99,0.97,0.93,0.15,-0.24,11.82,100.0,-82
2217,53.161,0.99,0.99,0.93,0.15,-0.29,11.10,100.0,-82
2218,53.261,0.94,0.98,0.93,0.20,-0.24,11.08,100.0,-82
2219,53.362,0.95,0.97,0.93,0.15,-0.24,11.06,100.0,-82
2220,53.445,1.04,0.95,0.88,0.10,-0.34,11.75,100.0,-79
2221,53.529,0.98,0.97,0.93,0.10,-0.24,11.75,100.0,-79
2222,53.612,0.97,0.96,0.93,0.15,-0.20,11.75,100.0,-79
2223,53.696,0.97,0.88,0.83,0.15,-0.24,11.06,100.0,-79
2224,53.780,0.96,0.91,0.88,0.10,-0.20,11.06,100.0,-79
2225,53.863,0.96,0.97,0.88,0.20,-0.34,11.06,100.0,-79
2226,53.947,0.97,0.90,0.83,0.15,-0.29,11.75,100.0,-79
2227,54.031,0.96,0.99,0.93,0.15,-0.29,11.75,100.0,-79
2228,54.115,0.93,0.94,0.88,0.15,-0.29,11.75,100.0,-79
2229,54.198,0.93,0.97,0.93,0.10,-0.24,11.06,100.0,-79
2230,54.282,0.89,0.87,0.83,0.10,-0.24,11.06,100.0,-79
2231,54.366,0.90,0.95,0.88,0.20,-0.29,11.06,100.0,-79
2232,54.450,0.93,0.92,0.88,0.10,-0.24,11.75,100.0,-83
2233,54.533,0.93,0.97,0.93,0.15,-0.24,11.75,100.0,-83
2234,54.617,0.89,0.93,0.88,0.15,-0.24,11.75,100.0,-83
2235,54.701,0.89,0.93,0.88,0.15,-0.24,11.08,100.0,-83
2236,54.784,0.86,0.98,0.88,0.24,-0.34,11.10,100.0,-83
2237,54.868,0.85,1.00,0.93,0.20,-0.29,11.12,100.0,-83
2238,54.968,0.92,0.87,0.78,0.15,-0.34,11.82,100.0,-75
2239,55.068,0.90,0.93,0.88,0.15,-0.24,11.82,100.0,-75
2240,55.169,0.86,1.03,0.98,0.20,-0.24,11.82,100.0,-75
2241,55.269,0.86,0.95,0.88,0.20,-0.29,11.10,100.0,-75
2242,55.369,0.89,0.94,0.88,0.15,-0.29,11.08,100.0,-75
2243,55.470,0.90,0.94,0.88,0.20,-0.24,11.06,100.0,-75
2244,55.553,0.95,0.92,0.88,0.10,-0.24,11.75,100.0,-71
2245,55.637,0.96,0.92,0.88,0.10,-0.24,11.75,100.0,-71
2246,55.721,1.00,0.92,0.88,0.15,-0.20,11.75,100.0,-71
2247,55.804,1.00,0.93,0.88,0.10,-0.29,11.06,100.0,-71
2248,55.888,0.97,0.93,0.88,0.15,-0.24,11.06,100.0,-71
2249,55.972,0.95,0.95,0.88,0.20,-0.29,11.06,100.0,-71
2250,56.055,1.06,0.88,0.83,0.15,-0.24,11.75,100.0,-72
2251,56.139,1.12,0.94,0.88,0.15,-0.29,11.75,100.0,-72
2252,56.223,1.05,0.98,0.93,0.20,-0.24,11.75,100.0,-72
2253,56.306,1.05,0.92,0.88,0.15,-0.20,11.06,100.0,-72
2254,56.390,1.01,0.94,0.88,0.20,-0.24,11.06,100.0,-72
2255,56.473,1.02,0.97,0.93,0.20,-0.20,11.06,100.0,-72
2256,56.557,1.03,0.93,0.88,0.15,-0.24,11.75,100.0,-71
2257,56.641,0.97,0.94,0.88,0.15,-0.29,11.75,100.0,-71
2258,56.724,0.94,0.91,0.88,0.10,-0.20,11.75,100.0,-71
2259,56.808,0.94,0.96,0.93,0.10,-0.20,11.08,100.0,-71
2260,56.892,0.89,0.93,0.88,0.15,-0.24,11.10,100.0,-71
2261,56.976,0.95,0.94,0.88,0.20,-0.24,11.12,100.0,-71
2262,57.076,1.04,0.97,0.93,0.10,-0.24,11.82,100.0,-70
2263,57.176,1.00,0.97,0.93,0.15,-0.24,11.82,100.0,-70
2264,57.276,0.93,0.94,0.88,0.20,-0.24,11.82,100.0,-70
2265,57.376,0.93,0.95,0.88,0.20,-0.29,11.10,100.0,-70
2266,57.476,0.92,1.01,0.93,0.20,-0.34,11.08,100.0,-70
2267,57.576,0.89,0.92,0.88,0.10,-0.24,11.06,100.0,-70
2268,57.660,0.98,0.90,0.83,0.15,-0.29,11.75,100.0,-71
2269,57.744,0.94,0.87,0.83,0.15,-0.20,11.75,100.0,-71
2270,57.827,0.93,0.92,0.88,0.15,-0.20,11.75,100.0,-71
2271,57.911,0.93,0.94,0.88,0.15,-0.29,11.06,100.0,-71
2272,57.995,0.92,1.01,0.93,0.20,-0.34,11.06,100.0,-71
2273,58.078,0.91,0.93,0.88,0.15,-0.24,11.06,100.0,-71
2274,58.162,1.00,0.94,0.88,0.15,-0.29,11.75,100.0,-75
2275,58.246,0.92,1.00,0.93,0.15,-0.34,11.75,100.0,-75
2276,58.329,0.94,0.88,0.83,0.15,-0.24,11.75,100.0,-75
2277,58.413,0.94,0.97,0.93,0.20,-0.20,11.06,100.0,-75
2278,58.497,0.95,0.94,0.88,0.15,-0.29,11.06,100.0,-75
2279,58.580,0.95,0.97,0.93,0.15,-0.24,11.06,100.0,-75
2280,58.664,0.95,0.94,0.88,0.15,-0.29,11.75,100.0,-74
2281,58.748,0.90,0.99,0.93,0.15,-0.29,11.75,100.0,-74
2282,58.831,0.88,0.89,0.83,0.20,-0.24,11.75,100.0,-74
2283,58.915,0.88,0.92,0.88,0.15,-0.20,11.06,100.0,-74
2284,58.999,0.93,0.96,0.93,0.10,-0.20,11.06,100.0,-74
2285,59.082,0.96,0.97,0.93,0.10,-0.24,11.06,100.0,-74
2286,59.166,1.04,0.96,0.88,0.15,-0.34,11.75,100.0,-72
2287,59.250,0.96,0.95,0.88,0.20,-0.29,11.75,100.0,-72
2288,59.333,1.03,0.90,0.83,0.20,-0.29,11.75,100.0,-72
2289,59.417,1.03,0.92,0.83,0.24,-0.29,11.08,100.0,-72
2290,59.501,1.00,0.94,0.88,0.20,-0.24,11.10,100.0,-72
2291,59.584,1.00,0.95,0.88,0.20,-0.29,11.12,100.0,-72
2292,59.684,1.02,0.89,0.83,0.20,-0.24,11.82,100.0,-75
2293,59.785,1.00,1.00,0.93,0.20,-0.29,11.82,100.0,-75
2294,59.885,1.02,0.97,0.93,0.15,-0.24,11.82,100.0,-75
2295,59.985,1.02,0.90,0.83,0.15,-0.29,11.10,100.0,-75
2296,60.085,0.95,0.94,0.88,0.15,-0.29,11.08,100.0,-75
2297,60.185,0.93,0.90,0.83,0.15,-0.29,11.06,100.0,-75
2298,60.269,1.01,0.94,0.88,0.15,-0.29,11.75,100.0,-77
2299,60.353,0.97,0.95,0.88,0.20,-0.29,11.75,100.0,-77
2300,60.436,1.01,0.93,0.88,0.15,-0.24,11.75,100.0,-77
2301,60.520,1.01,0.92,0.88,0.20,-0.20,11.06,100.0,-77
2302,60.603,0.97,0.94,0.88,0.20,-0.24,11.06,100.0,-77
2303,60.687,1.02,0.98,0.93,0.20,-0.24,11.06,100.0,-77
2304,60.771,1.05,0.90,0.83,0.15,-0.29,11.75,100.0,-70
2305,60.854,1.01,0.97,0.88,0.20,-0.34,11.75,100.0,-70
2306,60.938,0.99,0.99,0.93,0.15,-0.29,11.75,100.0,-70
2307,61.022,0.99,0.96,0.93,0.15,-0.20,11.06,100.0,-70
2308,61.105,1.05,0.92,0.88,0.15,-0.20,11.06,100.0,-70
2309,61.189,1.07,0.94,0.88,0.15,-0.29,11.06,100.0,-70
2310,61.273,1.15,0.91,0.88,0.10,-0.20,11.75,100.0,-65
2311,61.356,1.11,0.97,0.93,0.15,-0.24,11.75,100.0,-65
2312,61.440,1.04,0.95,0.88,0.20,-0.29,11.75,100.0,-65
2313,61.524,1.04,1.00,0.93,0.20,-0.29,11.08,100.0,-65
2314,61.607,0.98,0.92,0.88,0.10,-0.24,11.10,100.0,-65
2315,61.691,0.97,0.96,0.93,0.10,-0.20,11.12,100.0,-65
2316,61.791,0.96,0.93,0.88,0.15,-0.24,11.82,100.0,-70
2317,61.892,0.96,0.96,0.93,0.15,-0.20,11.82,100.0,-70
2318,61.992,0.93,0.88,0.83,0.15,-0.24,11.82,100.0,-70
2319,62.092,0.93,0.92,0.88,0.15,-0.20,11.10,100.0,-70
2320,62.193,0.99,0.96,0.93,0.15,-0.20,11.08,100.0,-70
2321,62.293,1.03,0.99,0.93,0.15,-0.29,11.06,100.0,-70
2322,62.377,1.10,0.97,0.88,0.20,-0.34,11.75,100.0,-67
2323,62.460,1.01,0.97,0.93,0.15,-0.24,11.75,100.0,-67
2324,62.544,0.99,0.96,0.93,0.15,-0.20,11.75,100.0,-67
2325,62.628,0.99,0.99,0.93,0.15,-0.29,11.06,100.0,-67
2326,62.711,0.89,0.92,0.88,0.15,-0.20,11.06,100.0,-67
2327,62.795,0.89,0.99,0.93,0.15,-0.29,11.06,100.0,-67
2328,62.879,0.92,0.96,0.88,0.15,-0.34,11.75,100.0,-67
2329,62.962,0.90,0.98,0.93,0.20,-0.24,11.75,100.0,-67
2330,63.046,0.90,0.98,0.93,0.20,-0.24,11.75,100.0,-67
2331,63.130,0.90,0.97,0.93,0.15,-0.24,11.06,100.0,-67
2332,63.213,0.91,0.94,0.88,0.20,-0.24,11.06,100.0,-67
2333,63.297,0.89,0.92,0.88,0.15,-0.20,11.06,100.0,-67
2334,63.380,0.99,0.93,0.88,0.10,-0.29,11.75,100.0,-69
2335,63.464,0.96,0.99,0.93,0.15,-0.29,11.75,100.0,-69
2336,63.547,0.89,0.99,0.93,0.15,-0.29,11.75,100.0,-69
2337,63.631,0.89,0.98,0.93,0.10,-0.29,11.08,100.0,-69
2338,63.714,0.84,0.90,0.83,0.20,-0.29,11.10,100.0,-69
2339,63.798,0.97,0.92,0.88,0.15,-0.20,11.13,100.0,-69
2340,63.898,0.99,0.96,0.88,0.15,-0.34,11.82,100.0,-68
2341,63.999,0.94,1.01,0.93,0.24,-0.29,11.82,100.0,-68
2342,64.099,0.97,0.90,0.88,0.10,-0.15,11.82,100.0,-68
2343,64.200,0.97,0.97,0.93,0.20,-0.20,11.10,100.0,-68
2344,64.300,0.95,0.92,0.88,0.15,-0.20,11.08,100.0,-68
2345,64.401,0.96,0.97,0.93,0.15,-0.24,11.06,100.0,-68
2346,64.485,1.03,0.96,0.88,0.15,-0.34,11.75,100.0,-70
2347,64.568,0.97,1.00,0.98,0.15,-0.15,11.75,100.0,-70
2348,64.652,0.92,0.97,0.93,0.15,-0.24,11.75,100.0,-70
2349,64.735,0.92,0.97,0.93,0.10,-0.24,11.06,100.0,-70
2350,64.819,1.03,0.93,0.88,0.15,-0.24,11.06,100.0,-70
2351,64.903,1.06,0.94,0.88,0.20,-0.24,11.06,100.0,-70
2352,64.986,1.11,0.94,0.88,0.15,-0.29,11.75,100.0,-69
2353,65.070,1.09,0.93,0.88,0.15,-0.24,11.75,100.0,-69
2354,65.154,1.01,0.97,0.93,0.15,-0.24,11.75,100.0,-69
2355,65.237,1.01,0.92,0.88,0.20,-0.20,11.06,100.0,-69
2356,65.321,1.02,0.92,0.88,0.20,-0.20,11.06,100.0,-69
2357,65.405,1.03,0.97,0.93,0.15,-0.24,11.06,100.0,-69
2358,65.488,1.08,0.90,0.83,0.20,-0.29,11.75,100.0,-68
2359,65.572,1.05,0.90,0.88,0.15,-0.10,11.75,100.0,-68
2360,65.656,1.03,0.92,0.88,0.15,-0.20,11.75,100.0,-68
2361,65.739,1.03,0.99,0.93,0.15,-0.29,11.08,100.0,-68
2362,65.823,1.01,0.92,0.88,0.20,-0.20,11.10,100.0,-68
2363,65.907,0.98,0.92,0.88,0.20,-0.20,11.12,100.0,-68
2364,65.990,1.03,0.93,0.88,0.15,-0.24,11.84,100.0,-70
2365,66.074,1.00,0.93,0.88,0.15,-0.24,11.86,100.0,-70
2366,66.158,1.03,0.97,0.93,0.15,-0.24,11.89,100.0,-70
2367,66.241,1.03,0.94,0.88,0.15,-0.29,11.19,100.0,-70
2368,66.325,0.95,0.97,0.93,0.15,-0.24,11.19,100.0,-70
2369,66.409,0.91,0.97,0.93,0.15,-0.24,11.19,100.0,-70
2370,66.509,0.97,0.90,0.83,0.15,-0.29,11.86,100.0,-67
2371,66.610,0.92,0.95,0.88,0.24,-0.24,11.84,100.0,-67
2372,66.710,0.99,0.96,0.93,0.10,-0.20,11.82,100.0,-67
2373,66.811,0.99,0.93,0.88,0.15,-0.24,11.10,100.0,-67
2374,66.911,0.92,0.97,0.93,0.15,-0.24,11.08,100.0,-67
2375,67.012,0.95,0.99,0.93,0.15,-0.29,11.06,100.0,-67
2376,67.095,1.02,0.90,0.83,0.15,-0.29,11.75,100.0,-73
2377,67.179,1.03,0.92,0.88,0.15,-0.20,11.75,100.0,-73
2378,67.262,0.98,0.96,0.93,0.15,-0.20,11.75,100.0,-73
2379,67.345,0.98,0.88,0.83,0.20,-0.20,11.06,100.0,-73
2380,67.429,0.96,0.93,0.88,0.15,-0.24,11.06,100.0,-73
2381,67.512,1.07,0.93,0.88,0.15,-0.24,11.06,100.0,-73
2382,67.596,1.06,0.94,0.88,0.15,-0.29,11.75,100.0,-71
2383,67.680,0.96,0.92,0.88,0.20,-0.20,11.75,100.0,-71
2384,67.764,0.94,0.92,0.88,0.15,-0.20,11.75,100.0,-71
2385,67.848,0.94,0.94,0.88,0.20,-0.24,11.06,100.0,-71
2386,67.932,0.97,0.97,0.93,0.15,-0.24,11.06,100.0,-71
2387,68.016,1.00,0.94,0.88,0.20,-0.24,11.06,100.0,-71
2388,68.099,1.09,0.94,0.88,0.15,-0.29,11.75,100.0,-72
2389,68.182,1.09,0.92,0.88,0.15,-0.20,11.75,100.0,-72
2390,68.265,0.99,0.93,0.88,0.15,-0.24,11.75,100.0,-72
2391,68.349,0.99,0.92,0.88,0.15,-0.20,11.08,100.0,-72
2392,68.432,0.91,0.96,0.93,0.15,-0.20,11.10,100.0,-72
2393,68.515,0.94,0.94,0.88,0.20,-0.24,11.12,100.0,-72
2394,68.616,0.98,0.90,0.83,0.20,-0.29,11.82,100.0,-70
2395,68.716,1.00,0.97,0.93,0.15,-0.24,11.82,100.0,-70
2396,68.817,1.04,0.97,0.93,0.15,-0.24,11.82,100.0,-70
2397,68.917,1.04,0.91,0.88,0.15,-0.15,11.10,100.0,-70
2398,69.018,1.00,0.93,0.88,0.15,-0.24,11.08,100.0,-70
2399,69.118,1.01,0.94,0.88,0.20,-0.24,11.06,100.0,-70
2400,69.202,0.96,0.93,0.88,0.15,-0.24,11.75,100.0,-69
2401,69.286,0.97,0.88,0.83,0.20,-0.20,11.75,100.0,-69
2402,69.369,0.94,0.94,0.88,0.20,-0.24,11.75,100.0,-69
2403,69.453,0.94,0.97,0.93,0.15,-0.24,11.06,100.0,-69
2404,69.537,1.00,0.92,0.88,0.15,-0.20,11.06,100.0,-69
2405,69.620,1.04,0.97,0.93,0.15,-0.24,11.06,100.0,-69
2406,69.704,1.04,0.93,0.88,0.15,-0.24,11.75,100.0,-68
2407,69.788,1.05,0.91,0.88,0.10,-0.20,11.75,100.0,-68
2408,69.871,1.07,0.99,0.93,0.15,-0.29,11.75,100.0,-68
2409,69.955,1.07,0.96,0.93,0.15,-0.20,11.06,100.0,-68
2410,70.039,1.04,0.92,0.88,0.15,-0.20,11.06,100.0,-68
2411,70.122,1.03,0.96,0.93,0.15,-0.20,11.06,100.0,-68
2412,70.206,1.08,0.94,0.88,0.15,-0.29,11.75,100.0,-67
2413,70.290,1.08,0.93,0.88,0.15,-0.24,11.75,100.0,-67
2414,70.373,1.11,0.92,0.88,0.20,-0.20,11.75,100.0,-67
2415,70.457,1.11,0.97,0.93,0.15,-0.24,11.08,100.0,-67
2416,70.541,0.97,0.92,0.88,0.20,-0.20,11.10,100.0,-67
2417,70.624,1.00,1.03,0.98,0.15,-0.29,11.12,100.0,-67
2418,70.725,1.04,5.00,4.95,0.29,-0.64,11.82,100.0,-61
2419,70.826,1.05,5.58,5.54,0.24,-0.69,11.81,100.0,-61
2420,70.927,1.18,7.12,7.06,0.29,-0.88,11.81,100.0,-61
2421,71.027,1.18,7.30,7.25,0.29,-0.78,11.10,100.0,-61
2422,71.128,1.21,7.08,7.06,0.34,-0.44,11.08,100.0,-61
2423,71.229,1.37,5.20,5.15,0.34,-0.69,11.05,100.0,-61
2424,71.312,1.52,2.37,2.30,0.15,-0.54,11.75,100.0,-74
2425,71.395,2.79,2.36,2.30,0.20,-0.49,11.75,100.0,-74
2426,71.478,3.93,2.36,2.30,0.20,-0.49,11.75,100.0,-74
2427,71.562,3.93,2.37,2.30,0.15,-0.54,11.06,100.0,-74
2428,71.645,4.84,2.35,2.30,0.15,-0.44,11.06,100.0,-74
2429,71.728,5.57,2.35,2.30,0.20,-0.44,11.06,100.0,-74
2430,71.812,6.36,2.03,1.96,0.20,-0.49,11.75,100.0,-80
2431,71.895,8.77,2.07,2.01,0.20,-0.44,11.75,100.0,-80
2432,71.979,10.83,2.16,2.11,0.15,-0.44,11.75,100.0,-80
2433,72.063,10.83,2.13,2.06,0.24,-0.49,11.06,100.0,-80
2434,72.146,12.49,2.11,2.06,0.20,-0.44,11.06,100.0,-80
2435,72.230,13.92,2.07,2.01,0.20,-0.44,11.06,100.0,-80
2436,72.314,15.15,1.97,1.91,0.15,-0.44,11.75,100.0,-87
2437,72.397,18.58,1.95,1.91,0.15,-0.34,11.75,100.0,-87
2438,72.481,21.26,1.92,1.86,0.20,-0.44,11.75,100.0,-87
2439,72.565,21.26,1.91,1.86,0.20,-0.39,11.08,100.0,-87
2440,72.648,23.44,1.91,1.86,0.20,-0.39,11.10,100.0,-87
2441,72.732,26.02,21.48,21.46,0.49,-0.69,11.12,100.0,-87
2442,72.832,27.89,0.33,-0.24,0.10,-0.20,11.82,100.0,-93
2443,72.933,31.03,0.34,-0.20,0.20,-0.20,11.82,100.0,-93
2444,73.033,33.54,0.35,-0.24,0.15,-0.20,11.82,100.0,-93
2445,73.133,33.54,0.31,-0.15,0.20,-0.20,11.10,100.0,-93
2446,73.233,35.42,0.38,-0.24,0.15,-0.24,11.08,100.0,-93
2447,73.334,37.03,0.38,-0.29,0.20,-0.15,11.06,100.0,-93
2448,73.417,38.53,0.37,-0.10,0.20,-0.29,11.75,100.0,-86
2449,73.501,41.31,0.29,-0.15,0.20,-0.15,11.75,100.0,-86
2450,73.585,43.50,0.35,-0.20,0.15,-0.24,11.75,100.0,-86
2451,73.668,43.50,0.29,-0.10,0.20,-0.20,11.06,100.0,-86
2452,73.752,45.16,0.26,-0.10,0.15,-0.20,11.06,100.0,-86
2453,73.836,46.50,0.30,-0.10,0.15,-0.24,11.06,100.0,-86
2454,73.919,47.70,0.30,-0.10,0.15,-0.24,11.75,100.0,-84
2455,74.003,49.82,0.30,-0.10,0.15,-0.24,11.75,100.0,-84
2456,74.087,51.57,0.20,-0.10,0.15,-0.10,11.75,100.0,-84
2457,74.170,51.57,0.21,-0.05,0.15,-0.15,11.06,100.0,-84
2458,74.254,52.89,0.33,-0.10,0.20,-0.24,11.06,100.0,-84
2459,74.338,53.93,0.29,-0.05,0.15,-0.24,11.06,100.0,-84
2460,74.421,54.82,0.28,-0.05,0.20,-0.20,11.75,100.0,-83
2461,74.505,56.11,0.25,-0.05,0.15,-0.20,11.75,100.0,-83
2462,74.589,57.09,0.32,-0.05,0.20,-0.24,11.75,100.0,-83
2463,74.673,57.09,0.28,-0.05,0.20,-0.20,11.06,100.0,-83
2464,74.757,57.86,0.33,-0.10,0.20,-0.24,11.06,100.0,-83
2465,74.840,58.49,0.32,-0.05,0.20,-0.24,11.06,100.0,-83
2466,74.924,59.00,0.29,-0.05,0.15,-0.24,11.75,100.0,-86
2467,75.007,59.47,0.25,-0.05,0.15,-0.20,11.75,100.0,-86
2468,75.091,59.87,0.29,-0.05,0.15,-0.24,11.75,100.0,-86
2469,75.174,59.87,0.33,-0.10,0.20,-0.24,11.08,100.0,-86
2470,75.258,60.08,0.25,-0.05,0.15,-0.20,11.10,100.0,-86
2471,75.341,60.27,0.40,-0.05,0.20,-0.34,11.12,100.0,-86
2472,75.442,60.52,0.25,-0.05,0.15,-0.20,11.82,100.0,-87
2473,75.542,60.30,0.21,-0.05,0.15,-0.15,11.82,100.0,-87
2474,75.642,60.02,0.25,-0.05,0.15,-0.20,11.82,100.0,-87
2475,75.743,60.02,0.26,-0.10,0.15,-0.20,11.10,100.0,-87
2476,75.843,59.70,0.30,-0.10,0.15,-0.24,11.08,100.0,-87
2477,75.943,59.47,0.33,0.00,0.15,-0.29,11.06,100.0,-87
2478,76.027,59.35,0.36,-0.15,0.15,-0.29,11.75,100.0,-87
2479,76.110,58.32,0.29,-0.05,0.15,-0.24,11.75,100.0,-87
2480,76.194,57.49,0.21,-0.05,0.15,-0.15,11.75,100.0,-87
2481,76.278,57.49,0.36,-0.05,0.20,-0.29,11.06,100.0,-87
2482,76.361,56.78,0.26,-0.10,0.15,-0.20,11.06,100.0,-87
2483,76.445,56.17,0.25,-0.05,0.15,-0.20,11.06,100.0,-87
2484,76.529,55.70,0.26,-0.15,0.10,-0.20,11.75,100.0,-82
2485,76.612,53.82,0.29,-0.10,0.20,-0.20,11.75,100.0,-82
2486,76.696,52.44,0.25,-0.15,0.15,-0.15,11.75,100.0,-82
2487,76.780,52.44,0.24,-0.10,0.10,-0.20,11.06,100.0,-82
2488,76.863,51.23,0.29,-0.15,0.15,-0.20,11.06,100.0,-82
2489,76.947,50.27,0.30,-0.10,0.15,-0.24,11.06,100.0,-82
2490,77.031,49.47,0.40,-0.20,0.20,-0.29,11.75,100.0,-83
2491,77.114,46.98,0.30,-0.10,0.15,-0.24,11.75,100.0,-83
2492,77.198,45.03,0.25,-0.15,0.15,-0.15,11.75,100.0,-83
2493,77.282,45.03,0.25,-0.15,0.15,-0.15,11.08,100.0,-83
2494,77.365,43.43,0.31,-0.20,0.20,-0.15,11.10,100.0,-83
2495,77.449,42.03,0.31,-0.20,0.15,-0.20,11.12,100.0,-83
2496,77.549,40.93,0.43,-0.29,0.20,-0.24,11.82,100.0,-82
2497,77.649,37.81,0.38,-0.24,0.15,-0.24,11.82,100.0,-82
2498,77.750,35.40,0.35,-0.24,0.20,-0.15,11.82,100.0,-82
2499,77.850,35.40,0.34,-0.20,0.20,-0.20,11.10,100.0,-82
2500,77.951,33.33,0.35,-0.24,0.20,-0.15,11.08,100.0,-82
2501,78.051,31.76,0.38,-0.24,0.24,-0.15,11.06,100.0,-82
2502,78.134,30.42,0.46,-0.34,0.10,-0.29,11.75,100.0,-109
2503,78.218,26.60,0.43,-0.29,0.20,-0.24,11.75,100.0,-109
2504,78.302,23.66,0.44,-0.34,0.20,-0.20,11.75,100.0,-109
2505,78.385,23.66,0.38,-0.29,0.15,-0.20,11.06,100.0,-109
2506,78.469,21.29,0.45,-0.34,0.15,-0.24,11.06,100.0,-109
2507,78.553,19.29,0.35,-0.24,0.15,-0.20,11.06,100.0,-109
2508,78.636,1042.07,1.81,1.62,0.69,0.44,11.75,100.0,-111
2509,78.720,-429.38,1.81,-0.78,1.37,0.88,11.75,100.0,-111
2510,78.804,-366.26,1.34,-1.32,0.00,0.20,11.75,100.0,-111
2511,78.887,-366.26,0.86,-0.74,0.39,0.20,11.06,100.0,-111
2512,78.971,-277.88,1.22,-0.74,0.64,0.74,11.06,100.0,-111
2513,79.054,-209.24,0.98,-0.93,0.29,0.00,11.06,100.0,-111
2514,79.138,-157.37,1.00,-0.98,0.15,0.10,11.75,100.0,-109
2515,79.222,-118.38,0.95,-0.93,0.15,0.10,11.75,100.0,-109
2516,79.306,-88.94,1.01,-0.98,0.24,0.05,11.75,100.0,-109
2517,79.389,-88.94,1.05,-1.03,0.20,0.05,11.08,100.0,-109
2518,79.473,-66.94,0.90,-0.88,0.15,0.10,11.10,100.0,-109
2519,79.557,-50.29,1.00,-0.98,0.20,0.05,11.12,100.0,-109
2520,79.657,-37.80,1.05,-1.03,0.20,0.05,11.82,100.0,-112
2521,79.757,-28.46,1.01,-0.98,0.24,0.05,11.82,100.0,-112
2522,79.858,-21.46,0.95,-0.93,0.20,0.05,11.82,100.0,-112
2523,79.958,-21.46,1.00,-0.98,0.15,0.15,11.10,100.0,-112
2524,80.058,-16.27,0.95,-0.93,0.20,0.05,11.08,100.0,-112
2525,80.158,-12.25,1.02,-0.98,0.24,0.15,11.06,100.0,-112
2526,80.242,-9.29,1.05,-1.03,0.20,0.05,11.75,100.0,-111
2527,80.326,-7.12,0.95,-0.93,0.15,0.10,11.75,100.0,-111
2528,80.409,-5.48,1.05,-1.03,0.20,0.10,11.75,100.0,-111
2529,80.493,-5.48,0.95,-0.93,0.20,0.05,11.06,100.0,-111
2530,80.577,-4.24,0.95,-0.93,0.20,0.05,11.06,100.0,-111
2531,80.660,-3.25,1.01,-0.98,0.24,0.10,11.06,100.0,-111
2532,80.744,-2.48,1.00,-0.98,0.20,0.05,11.75,100.0,-109
2533,80.828,-2.03,1.00,-0.98,0.15,0.15,11.75,100.0,-109
2534,80.911,-1.66,0.96,-0.93,0.20,0.10,11.75,100.0,-109
2535,80.995,-1.66,1.00,-0.98,0.20,0.10,11.06,100.0,-109
2536,81.079,-1.38,0.95,-0.93,0.20,0.05,11.06,100.0,-109
2537,81.162,-1.14,1.00,-0.98,0.20,0.10,11.06,100.0,-109
2538,81.246,-0.84,1.00,-0.98,0.20,0.10,11.75,100.0,-120
2539,81.330,-0.77,1.00,-0.98,0.20,0.05,11.75,100.0,-120
2540,81.413,-0.67,1.00,-0.98,0.20,0.10,11.75,100.0,-120
2541,81.497,-0.67,1.00,-0.98,0.20,0.10,11.08,100.0,-120
2542,81.581,-0.59,1.06,-1.03,0.24,0.10,11.10,100.0,-120
2543,81.664,-0.56,0.94,-0.93,0.15,0.05,11.12,100.0,-120
2544,81.748,-0.55,1.00,-0.98,0.15,0.10,11.84,100.0,-113
2545,81.831,-0.59,1.05,-1.03,0.20,0.05,11.86,100.0,-113
2546,81.915,-0.59,1.00,-0.98,0.20,0.05,11.89,100.0,-113
2547,81.998,-0.59,1.00,-0.98,0.20,0.10,11.19,100.0,-113
2548,82.082,-0.60,1.00,-0.98,0.20,0.05,11.19,100.0,-113
2549,82.165,-0.55,1.00,-0.98,0.20,0.10,11.19,100.0,-113
2550,82.265,-0.45,1.00,-0.98,0.20,0.05,11.86,100.0,-115
2551,82.366,-0.53,1.01,-0.98,0.24,0.05,11.84,100.0,-115
2552,82.466,-0.47,0.95,-0.93,0.15,0.10,11.82,100.0,-115
2553,82.566,-0.47,0.96,-0.93,0.20,0.10,11.10,100.0,-115
2554,82.667,-0.48,0.96,-0.93,0.20,0.10,11.08,100.0,-115
2555,82.767,-0.48,0.95,-0.93,0.15,0.10,11.06,100.0,-115
2556,82.851,-0.36,1.05,-1.03,0.20,0.05,11.75,100.0,-128
2557,82.934,-0.44,0.96,-0.93,0.20,0.10,11.75,100.0,-128
2558,83.018,-0.39,1.00,-0.98,0.20,0.10,11.75,100.0,-128
2559,83.102,-0.39,0.97,-0.93,0.24,0.10,11.06,100.0,-128
2560,83.185,-0.42,1.00,-0.98,0.15,0.10,11.06,100.0,-128
2561,83.269,-0.42,1.00,-0.98,0.20,0.10,11.06,100.0,-128
2568,83.436,-0.39,1.04,-1.03,0.15,0.05,11.64,94.5,-129
2569,83.603,-0.42,0.95,-0.93,0.20,0.05,11.53,94.5,-129
2570,83.770,-0.41,1.00,-0.98,0.20,0.10,11.42,94.5,-129
2571,83.936,-0.41,0.90,-0.88,0.15,0.10,10.65,94.5,-129
2572,84.103,-0.46,1.00,-0.98,0.15,0.15,10.55,94.5,-129
2573,84.270,-0.43,0.96,-0.93,0.20,0.10,10.46,94.5,-129
2580,84.454,-0.31,1.00,-0.98,0.15,0.10,10.99,89.6,-113
2581,84.637,-0.37,1.00,-0.98,0.20,0.10,10.87,89.6,-113
2582,84.821,-0.44,1.01,-0.98,0.20,0.15,10.76,89.6,-113
2583,85.004,-0.44,0.96,-0.93,0.20,0.15,10.04,89.6,-113
2584,85.188,-0.45,1.00,-0.98,0.20,0.10,9.95,89.6,-113
2585,85.371,-0.48,0.96,-0.93,0.20,0.15,9.87,89.6,-113
2586,85.455,-0.50,0.94,-0.93,0.15,0.05,10.50,90.2,-112
2587,85.538,-0.53,1.00,-0.98,0.20,0.10,10.52,90.2,-112
2588,85.622,-0.53,1.00,-0.98,0.20,0.05,10.54,90.2,-112
2589,85.705,-0.53,1.00,-0.98,0.20,0.10,9.92,90.2,-112
2590,85.789,-0.54,1.01,-0.98,0.24,0.10,9.92,90.2,-112
2591,85.872,-0.56,1.01,-0.98,0.20,0.15,9.92,90.2,-112
2592,85.956,-0.52,1.05,-1.03,0.20,0.10,10.54,90.8,-113
2593,86.040,-0.46,1.00,-0.98,0.20,0.05,10.54,90.8,-113
2594,86.123,-0.41,1.00,-0.98,0.20,0.05,10.54,90.8,-113
2595,86.207,-0.41,0.96,-0.93,0.20,0.10,9.92,90.8,-113
2596,86.291,-0.42,1.00,-0.98,0.15,0.15,9.92,90.8,-113
2597,86.374,-0.41,1.00,-0.98,0.20,0.05,9.92,90.8,-113
2598,86.475,-0.32,1.04,-1.03,0.15,0.05,10.52,91.3,-114
2599,86.575,-0.43,1.00,-0.98,0.15,0.10,10.50,91.3,-114
2600,86.675,-0.43,0.96,-0.93,0.20,0.10,10.48,91.3,-114
2601,86.776,-0.43,1.00,-0.98,0.20,0.05,9.85,91.3,-114
2602,86.876,-0.49,0.95,-0.93,0.20,0.05,9.83,91.3,-114
2603,86.976,-0.46,0.95,-0.93,0.20,0.05,9.82,91.3,-114
2604,87.060,-0.44,1.04,-1.03,0.15,0.10,10.43,91.8,-112
2605,87.143,-0.51,1.00,-0.98,0.20,0.10,10.43,91.8,-112
2606,87.227,-0.47,1.01,-0.98,0.20,0.15,10.43,91.8,-112
2607,87.311,-0.47,1.06,-1.03,0.24,0.10,9.83,91.8,-112
2608,87.394,-0.53,0.95,-0.93,0.15,0.10,9.85,91.8,-112
2609,87.478,-0.50,1.00,-0.98,0.20,0.05,9.87,91.8,-112
2610,87.562,-0.41,0.99,-0.98,0.15,0.05,10.50,92.3,-112
2611,87.645,-0.37,0.96,-0.93,0.20,0.10,10.52,92.3,-112
2612,87.729,-0.36,1.07,-1.03,0.24,0.15,10.54,92.3,-112
2613,87.813,-0.36,1.00,-0.98,0.20,0.05,9.92,92.3,-112
2614,87.896,-0.38,1.00,-0.98,0.20,0.05,9.92,92.3,-112
2615,87.980,-0.37,1.05,-1.03,0.20,0.10,9.92,92.3,-112
2616,88.064,-0.32,0.99,-0.98,0.15,0.05,10.54,92.8,-113
2617,88.147,-0.37,1.00,-0.98,0.20,0.10,10.54,92.8,-113
2618,88.231,-0.37,1.00,-0.98,0.20,0.10,10.54,92.8,-113
2619,88.315,-0.37,0.97,-0.93,0.24,0.15,9.92,92.8,-113
2620,88.398,-0.36,1.01,-0.98,0.24,0.10,9.92,92.8,-113
2621,88.482,-0.35,0.95,-0.93,0.15,0.10,9.92,92.8,-113
2622,88.582,-0.33,1.00,-0.98,0.20,0.05,10.52,93.2,-116
2623,88.682,-0.37,1.00,-0.98,0.20,0.10,10.50,93.2,-116
2624,88.783,-0.44,1.00,-0.98,0.15,0.10,10.48,93.2,-116
2625,88.883,-0.44,1.00,-0.98,0.20,0.05,9.85,93.2,-116
2626,88.983,-0.50,0.95,-0.93,0.15,0.10,9.83,93.2,-116
2627,89.084,-0.47,0.95,-0.93,0.20,0.05,9.82,93.2,-116
2628,89.167,-0.45,1.00,-0.98,0.15,0.10,10.43,93.6,-114
2629,89.251,-0.50,1.00,-0.98,0.20,0.10,10.43,93.6,-114
2630,89.335,-0.47,1.01,-0.98,0.24,0.00,10.43,93.6,-114
2631,89.418,-0.47,0.97,-0.93,0.24,0.10,9.83,93.6,-114
2632,89.502,-0.50,1.00,-0.98,0.20,0.10,9.85,93.6,-114
2633,89.586,-0.41,0.96,-0.93,0.20,0.10,9.87,93.6,-114
2640,89.752,-0.35,1.04,-1.03,0.15,0.10,10.41,88.8,-122
2641,89.919,-0.32,1.00,-0.98,0.20,0.10,10.34,88.8,-122
2642,90.086,-0.36,0.96,-0.93,0.20,0.10,10.27,88.8,-122
2643,90.252,-0.36,1.00,-0.98,0.20,0.05,9.59,88.8,-122
2644,90.419,-0.41,0.95,-0.93,0.15,0.10,9.51,88.8,-122
2645,90.586,-0.40,1.00,-0.98,0.15,0.10,9.43,88.8,-122
2646,90.669,-0.39,1.00,-0.98,0.20,0.00,10.02,89.5,-113
2647,90.753,-0.43,0.95,-0.93,0.20,0.05,10.02,89.5,-113
2648,90.837,-0.43,1.00,-0.98,0.20,0.10,10.02,89.5,-113
2649,90.920,-0.43,0.94,-0.93,0.15,0.05,9.43,89.5,-113
2650,91.004,-0.42,1.00,-0.98,0.20,0.05,9.43,89.5,-113
2651,91.088,-0.43,0.94,-0.93,0.15,0.05,9.43,89.5,-113
2652,91.188,-0.38,1.05,-1.03,0.20,0.05,10.01,90.1,-111
2653,91.288,-0.41,0.96,-0.93,0.20,0.15,9.99,90.1,-111
2654,91.389,-0.37,0.95,-0.93,0.20,0.05,9.97,90.1,-111
2655,91.489,-0.37,1.00,-0.98,0.20,0.05,9.37,90.1,-111
2656,91.589,-0.37,1.00,-0.98,0.20,0.10,9.36,90.1,-111
2657,91.690,-0.36,1.00,-0.98,0.20,0.10,9.34,90.1,-111
2664,91.856,-0.32,1.00,-0.98,0.15,0.10,9.85,85.7,-115
2665,92.023,-0.45,1.01,-0.98,0.24,0.05,9.77,85.7,-115
2666,92.190,-0.43,1.00,-0.98,0.20,0.10,9.69,85.7,-115
2667,92.357,-0.43,0.96,-0.93,0.20,0.10,9.05,85.7,-115
2668,92.524,-0.46,1.00,-0.98,0.15,0.15,8.98,85.7,-115
2669,92.691,-0.40,0.95,-0.93,0.15,0.10,8.91,85.7,-115
2670,92.774,-0.38,0.94,-0.93,0.15,0.05,9.47,86.5,-115
2671,92.858,-0.40,0.96,-0.93,0.20,0.10,9.47,86.5,-115
2672,92.942,-0.38,1.00,-0.98,0.20,0.05,9.47,86.5,-115
2673,93.025,-0.38,0.94,-0.93,0.10,0.10,8.92,86.5,-115
2674,93.109,-0.41,1.01,-0.98,0.24,0.10,8.94,86.5,-115
2675,93.193,-0.38,0.97,-0.93,0.24,0.10,8.95,86.5,-115
2676,93.293,-0.38,0.94,-0.93,0.10,0.05,9.51,87.3,-113
2677,93.393,-0.41,1.01,-0.98,0.20,0.15,9.51,87.3,-113
2678,93.494,-0.38,0.90,-0.88,0.15,0.10,9.51,87.3,-113
2679,93.594,-0.38,0.94,-0.93,0.15,0.05,8.94,87.3,-113
2680,93.694,-0.46,0.96,-0.93,0.20,0.10,8.92,87.3,-113
2681,93.794,-0.48,1.01,-0.98,0.20,0.15,8.91,87.3,-113
2682,93.878,-0.41,1.01,-0.98,0.20,0.15,9.47,88.1,-112
2683,93.962,-0.40,1.00,-0.98,0.20,0.10,9.47,88.1,-112
2684,94.045,-0.39,1.02,-0.98,0.24,0.15,9.47,88.1,-112
2685,94.129,-0.39,1.00,-0.98,0.20,0.10,8.98,88.1,-112
2686,94.213,-0.42,0.95,-0.93,0.15,0.10,9.05,88.1,-112
2687,94.296,-0.45,0.95,-0.93,0.20,0.05,9.12,88.1,-112
2688,94.380,-0.41,1.00,-0.98,0.15,0.10,9.77,88.8,-114
2689,94.464,-0.50,1.00,-0.98,0.20,0.10,9.85,88.8,-114
2690,94.547,-0.51,0.96,-0.93,0.20,0.10,9.93,88.8,-114
2691,94.631,-0.51,1.00,-0.98,0.20,0.10,9.43,88.8,-114
2692,94.715,-0.54,1.05,-1.03,0.20,0.10,9.53,88.8,-114
2693,94.798,-0.46,1.00,-0.98,0.20,0.10,9.62,88.8,-114
2694,94.882,-0.45,1.00,-0.98,0.20,0.05,10.33,89.4,-115
2695,94.965,-0.40,1.00,-0.98,0.20,0.10,10.43,89.4,-115
2696,95.049,-0.43,1.11,-1.08,0.24,0.15,10.54,89.4,-115
2697,95.133,-0.43,1.02,-0.98,0.29,0.05,9.92,89.4,-115
2698,95.216,-0.47,0.96,-0.93,0.20,0.10,9.92,89.4,-115
2699,95.300,-0.41,1.00,-0.98,0.20,0.10,9.92,89.4,-115
2700,95.400,-0.41,1.06,-1.03,0.24,0.05,10.52,90.0,-120
2701,95.501,-0.43,0.95,-0.93,0.20,0.05,10.50,90.0,-120
2702,95.601,-0.45,1.00,-0.98,0.20,0.10,10.48,90.0,-120
2703,95.701,-0.45,1.00,-0.98,0.20,0.10,9.85,90.0,-120
2704,95.802,-0.48,1.00,-0.98,0.20,0.10,9.83,90.0,-120
2705,95.902,-0.40,0.95,-0.93,0.15,0.10,9.82,90.0,-120
2706,95.985,-0.34,1.00,-0.98,0.15,0.10,10.43,90.6,-116
2707,96.069,-0.46,1.01,-0.98,0.20,0.15,10.43,90.6,-116
2708,96.152,-0.44,1.03,-0.98,0.29,0.10,10.43,90.6,-116
2709,96.236,-0.44,1.01,-0.98,0.24,0.10,9.84,90.6,-116
2710,96.319,-0.45,0.96,-0.93,0.20,0.10,9.85,90.6,-116
2711,96.402,-0.39,1.05,-1.03,0.20,0.05,9.87,90.6,-116
2712,96.486,-0.34,1.05,-1.03,0.20,0.05,10.50,91.2,-119
2713,96.570,-0.33,0.99,-0.98,0.15,0.05,10.52,91.2,-119
2714,96.653,-0.33,0.96,-0.93,0.20,0.10,10.54,91.2,-119
2715,96.737,-0.33,0.96,-0.93,0.20,0.10,9.92,91.2,-119
2716,96.821,-0.30,1.01,-0.98,0.20,0.15,9.92,91.2,-119
2717,96.905,-0.35,1.00,-0.98,0.20,0.10,9.92,91.2,-119
2718,96.988,-0.37,1.02,-0.98,0.24,0.15,10.54,91.7,-124
2719,97.072,-0.36,1.01,-0.98,0.24,0.10,10.54,91.7,-124
2720,97.155,-0.32,0.95,-0.93,0.15,0.15,10.54,91.7,-124
2721,97.239,-0.32,1.02,-0.98,0.24,0.15,9.92,91.7,-124
2722,97.323,-0.34,0.96,-0.93,0.20,0.10,9.92,91.7,-124
2723,97.406,-0.34,1.00,-0.98,0.20,0.05,9.92,91.7,-124
2736,98.007,-0.31,0.99,-0.98,0.15,0.05,10.01,82.4,-112
2737,98.207,-0.31,0.96,-0.93,0.20,0.10,9.89,82.4,-112
2738,98.407,-0.30,1.00,-0.98,0.20,0.10,9.78,82.4,-112
2739,98.607,-0.30,1.01,-0.98,0.20,0.15,9.11,82.4,-112
2740,98.807,-0.37,0.96,-0.93,0.24,0.05,9.01,82.4,-112
2741,99.007,-0.39,1.00,-0.98,0.20,0.05,8.91,82.4,-112
2748,99.191,-0.32,1.00,-0.98,0.20,0.05,9.38,78.9,-109
2749,99.374,-0.33,1.01,-0.98,0.20,0.15,9.29,78.9,-109
2750,99.558,-0.34,1.01,-0.98,0.24,0.05,9.21,78.9,-109
2751,99.741,-0.34,1.00,-0.98,0.20,0.05,8.60,78.9,-109
2752,99.925,-0.43,0.95,-0.93,0.15,0.15,8.54,78.9,-109
2753,100.108,-0.44,0.95,-0.93,0.15,0.10,8.48,78.9,-109
2754,100.192,-0.41,0.95,-0.93,0.15,0.15,9.02,80.1,-109
2755,100.276,-0.40,1.00,-0.98,0.20,0.05,9.03,80.1,-109
2756,100.359,-0.42,1.04,-1.03,0.15,0.10,9.05,80.1,-109
2757,100.443,-0.42,0.96,-0.93,0.20,0.10,8.51,80.1,-109
2758,100.526,-0.44,1.06,-1.03,0.20,0.15,8.51,80.1,-109
2759,100.610,-0.46,0.95,-0.93,0.15,0.10,8.51,80.1,-109
2760,100.694,-0.32,1.05,-1.03,0.20,0.05,9.05,81.3,-108
2761,100.777,-0.39,1.01,-0.98,0.24,0.10,9.05,81.3,-108
2762,100.861,-0.35,0.97,-0.93,0.24,0.10,9.05,81.3,-108
2763,100.945,-0.35,0.90,-0.88,0.15,0.10,8.58,81.3,-108
2764,101.028,-0.45,1.00,-0.98,0.20,0.05,8.64,81.3,-108
2765,101.112,-0.43,1.00,-0.98,0.20,0.10,8.71,81.3,-108
2766,101.196,-0.40,0.99,-0.98,0.15,0.05,9.32,82.4,-109
2767,101.279,-0.46,0.97,-0.93,0.24,0.10,9.39,82.4,-109
2768,101.363,-0.49,0.95,-0.93,0.15,0.15,9.46,82.4,-109
2769,101.447,-0.49,1.01,-0.98,0.20,0.15,8.91,82.4,-109
2770,101.530,-0.52,1.00,-0.98,0.15,0.10,8.91,82.4,-109
2771,101.614,-0.49,1.05,-1.03,0.20,0.05,8.91,82.4,-109
2772,101.698,-0.42,1.00,-0.98,0.20,0.10,9.46,83.4,-111
2773,101.781,-0.49,1.01,-0.98,0.20,0.15,9.46,83.4,-111
2774,101.865,-0.44,1.00,-0.98,0.20,0.10,9.46,83.4,-111
2775,101.949,-0.44,1.00,-0.98,0.20,0.05,8.92,83.4,-111
2776,102.033,-0.47,1.06,-1.03,0.24,0.10,8.93,83.4,-111
2777,102.116,-0.46,0.95,-0.93,0.20,0.05,8.95,83.4,-111
2778,102.217,-0.34,1.04,-1.03,0.15,0.10,9.51,84.4,-111
2779,102.317,-0.36,1.01,-0.98,0.20,0.15,9.51,84.4,-111
2780,102.417,-0.39,0.99,-0.98,0.15,0.05,9.51,84.4,-111
2781,102.518,-0.39,1.02,-0.98,0.20,0.20,9.00,84.4,-111
2782,102.618,-0.40,1.10,-1.08,0.20,0.10,9.06,84.4,-111
2783,102.718,-0.45,1.00,-0.98,0.20,0.10,9.12,84.4,-111
2784,102.802,-0.40,0.99,-0.98,0.15,0.05,9.77,85.3,-112
2785,102.886,-0.49,0.99,-0.98,0.15,0.05,9.84,85.3,-112
2786,102.969,-0.48,1.01,-0.98,0.24,0.10,9.92,85.3,-112
2787,103.053,-0.48,1.05,-1.03,0.20,0.10,9.34,85.3,-112
2788,103.136,-0.48,1.00,-0.98,0.20,0.10,9.34,85.3,-112
2789,103.220,-0.47,1.00,-0.98,0.20,0.10,9.34,85.3,-112
2790,103.304,-0.41,1.00,-0.98,0.20,0.05,9.92,86.1,-111
2791,103.387,-0.45,1.05,-1.03,0.20,0.10,9.92,86.1,-111
2792,103.471,-0.43,0.95,-0.93,0.15,0.10,9.92,86.1,-111
2793,103.555,-0.43,1.00,-0.98,0.20,0.05,9.36,86.1,-111
2794,103.638,-0.50,0.96,-0.93,0.20,0.10,9.37,86.1,-111
2795,103.722,-0.42,0.96,-0.93,0.20,0.10,9.39,86.1,-111
2796,103.806,-0.36,1.04,-1.03,0.15,0.10,9.99,86.9,-112
2797,103.889,-0.39,1.05,-1.03,0.20,0.10,10.00,86.9,-112
2798,103.973,-0.41,1.01,-0.98,0.24,0.05,10.02,86.9,-112
2799,104.057,-0.41,1.00,-0.98,0.15,0.15,9.43,86.9,-112
2800,104.140,-0.38,1.00,-0.98,0.20,0.05,9.43,86.9,-112
2801,104.224,-0.29,0.96,-0.93,0.24,0.05,9.43,86.9,-112
2802,104.324,-0.27,1.04,-1.03,0.15,0.10,10.00,87.7,-111
2803,104.425,-0.31,0.96,-0.93,0.24,0.05,9.99,87.7,-111
2804,104.525,-0.35,0.96,-0.93,0.20,0.10,9.97,87.7,-111
2805,104.625,-0.35,1.06,-1.03,0.24,0.05,9.37,87.7,-111
2806,104.725,-0.37,1.01,-0.98,0.24,0.10,9.35,87.7,-111
2807,104.826,-0.37,0.96,-0.93,0.20,0.10,9.34,87.7,-111
2808,104.909,-0.25,1.05,-1.03,0.20,0.05,9.92,88.4,-111
2809,104.993,-0.29,1.00,-0.98,0.20,0.10,9.92,88.4,-111
2810,105.077,-0.34,0.97,-0.93,0.24,0.10,9.92,88.4,-111
2811,105.160,-0.34,1.06,-1.03,0.24,0.10,9.34,88.4,-111
2812,105.244,-0.29,1.00,-0.98,0.20,0.10,9.34,88.4,-111
2813,105.328,-0.26,0.95,-0.93,0.20,0.05,9.34,88.4,-111
2814,105.411,-0.24,1.00,-0.98,0.20,0.05,9.92,89.1,-115
2815,105.495,-0.31,0.95,-0.93,0.15,0.15,9.92,89.1,-115
2816,105.579,-0.35,1.00,-0.98,0.20,0.05,9.92,89.1,-115
2817,105.662,-0.35,1.01,-0.98,0.24,0.05,9.35,89.1,-115
2818,105.746,-0.32,1.05,-1.03,0.20,0.05,9.37,89.1,-115
2819,105.830,-0.34,0.96,-0.93,0.20,0.10,9.39,89.1,-115
2820,105.913,-0.31,0.94,-0.93,0.10,0.00,9.99,89.7,-115
2821,105.997,-0.22,1.00,-0.98,0.20,0.10,10.00,89.7,-115
2822,106.080,-0.22,1.00,-0.98,0.20,0.05,10.02,89.7,-115
2823,106.164,-0.26,1.00,-0.98,0.20,0.10,9.43,89.7,-115
2824,106.248,-0.31,1.01,-0.98,0.24,0.10,9.43,89.7,-115
2825,106.331,-0.28,1.00,-0.98,0.20,0.10,9.43,89.7,-115
2826,106.432,-0.36,1.06,-1.03,0.24,0.05,10.00,90.3,-116
2827,106.532,0.36,0.96,-0.93,0.20,0.15,9.99,90.3,-116
2828,106.632,1.38,1.00,-0.98,0.20,0.10,9.97,90.3,-116
2829,106.733,1.38,0.97,-0.93,0.24,0.15,9.37,90.3,-116
2830,106.833,2.64,1.07,-1.03,0.24,0.15,9.35,90.3,-116
2831,106.933,3.83,1.01,-0.98,0.20,0.15,9.34,90.3,-116
2832,107.017,4.82,0.95,-0.93,0.15,0.10,9.92,90.9,-125
2833,107.100,7.37,1.00,-0.98,0.20,0.10,9.92,90.9,-125
2834,107.184,23.81,4.41,-4.26,0.29,1.08,9.92,90.9,-125
2835,107.268,23.81,3.59,-3.53,-0.20,0.64,9.34,90.9,-125
2836,107.351,17.82,2.47,-2.30,0.88,-0.10,9.34,90.9,-125
2837,107.435,13.30,2.00,-1.76,0.93,0.10,9.34,90.9,-125
2838,107.519,10.71,1.00,-0.98,0.20,0.00,9.92,91.4,-113
2839,107.602,7.95,0.98,-0.93,0.29,0.00,9.92,91.4,-113
2840,107.686,7.95,1.00,-0.93,0.34,0.10,9.92,91.4,-113
2841,107.770,5.88,1.06,-0.98,0.39,0.05,9.83,91.4,-113
2842,107.853,4.30,0.99,-0.93,0.34,0.05,9.95,91.4,-113
2843,107.937,3.19,0.93,-0.88,0.29,0.00,10.07,91.4,-113
2844,108.021,2.33,1.29,-1.27,0.20,0.05,10.84,91.9,-113
2845,108.104,1.67,1.20,-1.18,0.24,0.10,10.97,91.9,-113
2846,108.188,1.22,1.13,-1.08,0.34,0.00,11.11,91.9,-113
2847,108.272,1.22,1.08,-1.03,0.34,0.00,10.57,91.9,-113
2848,108.355,0.85,0.90,-0.88,0.15,0.10,10.69,91.9,-113
2849,108.439,0.57,0.92,-0.88,0.20,0.15,10.81,91.9,-113
2850,108.523,0.36,0.98,-0.93,0.29,0.10,11.62,92.4,-122
2851,108.606,0.16,0.92,-0.88,0.20,0.15,11.75,92.4,-122
2852,108.690,0.01,0.92,-0.88,0.10,0.24,11.89,92.4,-122
2853,108.774,0.01,1.06,-1.03,0.10,0.24,11.19,92.4,-122
2854,108.857,-0.12,1.05,-1.03,0.05,0.20,11.19,92.4,-122
2855,108.941,-0.11,1.05,-1.03,0.00,0.20,11.19,92.4,-122
2856,109.041,-0.15,1.08,-0.98,-0.10,0.44,11.86,92.9,-114
2857,109.141,-0.19,1.14,-0.98,0.00,0.59,11.84,92.9,-114
2858,109.242,-0.23,1.08,-0.98,0.05,0.44,11.82,92.9,-114
2859,109.342,-0.23,0.95,-0.93,0.15,0.15,11.10,92.9,-114
2860,109.442,-0.24,0.80,-0.78,0.15,0.05,11.08,92.9,-114
2861,109.543,-0.25,0.80,-0.78,0.15,-0.05,11.06,92.9,-114
2862,109.626,-0.19,2.04,-0.59,0.83,1.76,11.75,93.3,-115
2863,109.710,-0.26,2.03,-0.69,0.83,1.72,11.75,93.3,-115
2864,109.794,-0.32,0.31,0.05,-0.29,0.10,11.75,93.3,-115
2865,109.877,-0.32,0.18,-0.15,-0.10,0.00,11.06,93.3,-115
2866,109.961,-0.41,0.31,-0.15,0.20,-0.20,11.06,93.3,-115
2867,110.044,-0.40,0.35,-0.15,0.20,-0.24,11.06,93.3,-115
2868,110.128,-0.31,0.89,0.05,0.49,0.74,11.75,93.7,-115
2869,110.212,-0.38,0.84,0.00,0.49,0.69,11.75,93.7,-115
2870,110.295,-0.37,0.73,0.05,0.34,0.64,11.75,93.7,-115
2871,110.379,-0.37,0.79,0.05,0.39,0.69,11.06,93.7,-115
2872,110.463,-0.36,0.77,0.00,0.34,0.69,11.06,93.7,-115
2873,110.546,-0.30,0.83,0.00,0.39,0.74,11.06,93.7,-115
2874,110.630,-0.33,0.79,0.00,0.39,0.69,11.75,94.0,-114
2875,110.714,-0.36,0.79,0.05,0.39,0.69,11.75,94.0,-114
2876,110.797,-0.36,0.78,0.10,0.44,0.64,11.75,94.0,-114
2877,110.881,-0.37,0.83,0.05,0.39,0.74,11.08,94.0,-114
2878,110.965,-0.35,0.79,0.05,0.39,0.69,11.10,94.0,-114
2879,111.048,-0.36,0.82,0.05,0.44,0.69,11.12,94.0,-114
2880,111.148,-0.33,0.79,0.05,0.39,0.69,11.82,94.4,-126
2881,111.249,-0.37,0.79,0.05,0.39,0.69,11.82,94.4,-126
2882,111.349,-0.36,0.81,0.05,0.34,0.74,11.82,94.4,-126
2883,111.449,-0.36,0.86,0.05,0.44,0.74,11.10,94.4,-126
2884,111.550,-0.32,0.74,0.05,0.44,0.59,11.08,94.4,-126
2885,111.650,-0.31,0.66,0.05,0.44,0.49,11.06,94.4,-126
2886,111.734,-0.20,0.49,0.34,0.20,-0.29,11.75,94.7,-120
2887,111.817,-0.26,0.57,0.00,-0.20,0.54,11.75,94.7,-120
2888,111.901,-0.32,1.21,0.00,-0.44,1.13,11.75,94.7,-120
2889,111.985,-0.32,0.75,0.05,0.15,0.74,11.06,94.7,-120
2890,112.068,-0.33,0.80,0.00,0.15,0.78,11.06,94.7,-120
2891,112.152,-0.30,0.78,0.05,0.24,0.74,11.06,94.7,-120
2892,112.235,-0.35,0.69,0.00,0.05,0.69,11.75,95.0,-116
2893,112.319,-0.32,0.74,0.05,0.05,0.74,11.75,95.0,-116
2894,112.402,-0.32,0.74,0.00,0.05,0.74,11.75,95.0,-116
2895,112.485,-0.40,0.69,0.05,0.05,0.69,11.06,95.0,-116
2896,112.569,-0.40,0.74,0.05,0.05,0.74,11.06,95.0,-116
2897,112.652,-0.46,0.74,0.05,0.05,0.74,11.06,95.0,-116
2898,112.736,-0.39,0.64,0.05,0.05,0.64,11.75,95.3,-115
2899,112.820,-0.37,0.69,0.00,0.05,0.69,11.75,95.3,-115
2900,112.904,-0.37,0.69,0.05,0.05,0.69,11.75,95.3,-115
2901,112.988,-0.37,0.74,0.05,0.10,0.74,11.08,95.3,-115
2902,113.072,-0.41,0.64,0.05,0.05,0.64,11.10,95.3,-115
2903,113.156,-0.36,0.64,0.05,0.05,0.64,11.12,95.3,-115
2904,113.239,-0.32,0.69,0.00,0.05,0.69,11.84,95.6,-114
2905,113.323,-0.35,0.74,0.05,0.10,0.74,11.86,95.6,-114
2906,113.407,-0.35,0.74,0.05,0.05,0.74,11.89,95.6,-114
2907,113.490,-0.33,0.69,0.05,0.05,0.69,11.19,95.6,-114
2908,113.574,-0.37,0.69,0.05,0.05,0.69,11.19,95.6,-114
2909,113.658,-0.35,0.69,0.00,0.10,0.69,11.19,95.6,-114
2910,113.758,-0.29,0.69,-0.05,0.00,0.69,11.86,95.9,-116
2911,113.858,-0.35,0.74,0.05,0.05,0.74,11.84,95.9,-116
2912,113.958,-0.35,0.69,0.05,0.05,0.69,11.82,95.9,-116
2913,114.059,-0.37,0.69,0.00,0.10,0.69,11.10,95.9,-116
2914,114.159,-0.40,0.69,0.00,0.10,0.69,11.08,95.9,-116
2915,114.259,-0.40,0.69,0.00,0.05,0.69,11.06,95.9,-116
2916,114.343,-0.35,0.69,0.05,0.05,0.69,11.75,96.1,-115
2917,114.426,-0.38,0.69,0.05,0.05,0.69,11.75,96.1,-115
2918,114.510,-0.48,0.69,0.00,0.05,0.69,11.75,96.1,-115
2919,114.594,-0.48,0.69,0.05,0.10,0.69,11.06,96.1,-115
2920,114.677,-0.41,0.69,0.00,0.10,0.69,11.06,96.1,-115
2921,114.761,-0.50,0.74,0.05,0.05,0.74,11.06,96.1,-115
2922,114.845,-0.43,0.74,0.00,0.05,0.74,11.75,96.3,-119
2923,114.928,-0.38,0.74,0.05,0.00,0.74,11.75,96.3,-119
2924,115.011,-0.38,0.79,0.05,0.05,0.78,11.75,96.3,-119
2925,115.095,-0.41,0.69,0.05,0.05,0.69,11.08,96.3,-119
2926,115.178,-0.43,0.74,0.00,0.05,0.74,11.10,96.3,-119
2927,115.262,-0.44,0.74,0.05,0.05,0.74,11.12,96.3,-119
2928,115.346,-0.42,0.64,0.00,0.05,0.64,11.84,96.5,-115
2929,115.430,-0.40,0.74,0.05,0.05,0.74,11.86,96.5,-115
2930,115.514,-0.40,0.69,0.05,0.05,0.69,11.89,96.5,-115
2931,115.597,-0.34,0.69,0.05,0.00,0.69,11.19,96.5,-115
2932,115.681,-0.33,0.64,0.00,0.05,0.64,11.19,96.5,-115
2933,115.765,-0.33,0.69,0.05,0.05,0.69,11.19,96.5,-115
2934,115.849,-0.38,0.69,0.00,0.00,0.69,11.89,96.7,-115
2935,115.932,-0.41,0.74,0.00,0.00,0.74,11.89,96.7,-115
2936,116.016,-0.41,0.69,0.05,0.10,0.69,11.89,96.7,-115
2937,116.099,-0.47,0.69,0.10,0.05,0.69,11.19,96.7,-115
2938,116.183,-0.52,0.74,0.05,0.00,0.74,11.19,96.7,-115
2939,116.267,-0.45,0.69,0.05,0.10,0.69,11.19,96.7,-115
2946,116.450,-0.43,0.69,0.00,0.00,0.69,11.75,91.6,-120
2947,116.634,-0.43,0.64,0.05,0.05,0.64,11.62,91.6,-120
2948,116.817,-0.43,0.64,0.05,0.05,0.64,11.49,91.6,-120
2949,117.001,-0.49,0.69,0.05,0.05,0.69,10.69,91.6,-120
2950,117.184,-0.50,0.74,0.05,0.05,0.74,10.57,91.6,-120
2951,117.368,-0.36,0.74,0.05,0.05,0.74,10.46,91.6,-120
2952,117.451,-0.31,0.69,0.00,0.00,0.69,11.11,92.1,-117
2953,117.535,-0.38,0.69,0.00,0.05,0.69,11.11,92.1,-117
2954,117.618,-0.38,0.69,0.05,0.05,0.69,11.11,92.1,-117
2955,117.702,-0.42,0.75,0.00,0.29,0.69,10.46,92.1,-117
2956,117.786,-0.32,0.95,-0.10,0.15,0.93,10.46,92.1,-117
2957,117.869,-0.32,0.84,0.05,0.10,0.83,10.46,92.1,-117
2958,117.953,-0.38,0.97,-0.10,0.93,0.24,11.11,92.6,-123
2959,118.037,-0.42,1.08,0.05,0.93,0.54,11.11,92.6,-123
2960,118.120,-0.39,0.74,0.15,0.54,0.49,11.11,92.6,-123
2961,118.204,-0.39,0.66,0.00,0.44,0.49,10.48,92.6,-123
2962,118.288,-0.46,1.21,-0.05,0.64,1.03,10.50,92.6,-123
2963,118.371,-0.47,0.66,0.05,0.29,0.59,10.52,92.6,-123
2964,118.455,-0.44,0.70,0.00,0.29,0.64,11.19,93.0,-122
2965,118.539,-0.44,0.83,0.05,0.39,0.74,11.21,93.0,-122
2966,118.622,-0.44,0.79,0.00,0.39,0.69,11.23,93.0,-122
2967,118.706,-0.44,0.81,0.05,0.49,0.64,10.57,93.0,-122
2968,118.790,-0.50,0.77,0.05,0.34,0.69,10.57,93.0,-122
2969,118.873,-0.50,0.77,0.00,0.34,0.69,10.57,93.0,-122
2970,118.973,-0.48,0.79,0.00,0.29,0.74,11.21,93.4,-116
2971,119.074,-0.46,0.82,0.05,0.24,0.78,11.19,93.4,-116
2972,119.174,-0.46,0.82,0.05,0.24,0.78,11.17,93.4,-116
2973,119.274,-0.52,1.19,0.05,0.15,1.18,10.50,93.4,-116
2974,119.375,-0.49,0.58,0.10,0.20,0.54,10.48,93.4,-116
2975,119.475,-0.42,0.97,0.15,0.24,0.93,10.46,93.4,-116
2976,119.559,-0.40,0.59,0.00,-0.24,0.54,11.11,93.8,-123
2977,119.642,-0.36,0.58,0.05,-0.20,0.54,11.11,93.8,-123
2978,119.726,-0.36,0.62,0.00,-0.20,0.59,11.11,93.8,-123
2979,119.810,-0.37,0.62,0.05,-0.29,0.54,10.46,93.8,-123
2980,119.893,-0.30,0.57,0.00,-0.20,0.54,10.46,93.8,-123
2981,119.977,-0.32,0.73,0.05,-0.34,0.64,10.46,93.8,-123
2994,120.477,-0.36,0.57,0.00,-0.29,0.49,10.63,84.1,-121
2995,120.677,-0.33,0.62,0.05,-0.29,0.54,10.50,84.1,-121
2996,120.877,-0.33,0.64,0.00,-0.24,0.59,10.38,84.1,-121
2997,121.077,-0.38,0.57,0.00,-0.29,0.49,9.67,84.1,-121
2998,121.277,-0.39,0.67,0.00,-0.20,0.64,9.57,84.1,-121
2999,121.477,-0.39,0.66,0.00,-0.29,0.59,9.48,84.1,-121
3000,121.578,-0.41,0.61,0.00,-0.29,0.54,10.07,85.0,-113
3001,121.678,-0.43,0.62,0.05,-0.29,0.54,10.07,85.0,-113
3002,121.778,-0.43,0.62,0.00,-0.20,0.59,10.07,85.0,-113
3003,121.878,-0.43,0.62,0.05,-0.20,0.59,9.46,85.0,-113
3004,121.979,-0.39,0.68,0.00,-0.24,0.64,9.45,85.0,-113
3005,122.079,-0.38,0.59,0.05,-0.24,0.54,9.43,85.0,-113
3006,122.163,-0.44,0.59,0.00,-0.24,0.54,10.02,85.9,-115
3007,122.246,-0.44,0.59,0.00,-0.24,0.54,10.02,85.9,-115
3008,122.330,-0.44,0.57,0.00,-0.20,0.54,10.02,85.9,-115
3009,122.414,-0.44,0.59,0.00,-0.24,0.54,9.43,85.9,-115
3010,122.497,-0.41,0.57,0.00,-0.20,0.54,9.43,85.9,-115
3011,122.581,-0.41,0.59,0.05,-0.24,0.54,9.43,85.9,-115
3012,122.665,-0.38,0.53,0.00,-0.20,0.49,10.02,86.7,-116
3013,122.748,-0.34,0.57,0.00,-0.20,0.54,10.02,86.7,-116
3014,122.832,-0.34,0.62,0.05,-0.20,0.59,10.02,86.7,-116
3015,122.915,-0.42,0.59,0.05,-0.24,0.54,9.43,86.7,-116
3016,122.999,-0.35,0.68,0.00,-0.24,0.64,9.43,86.7,-116
3017,123.083,-0.43,0.57,0.05,-0.29,0.49,9.43,86.7,-116
3018,123.166,-0.38,0.57,0.05,-0.29,0.49,10.02,87.5,-115
3019,123.250,-0.41,0.64,0.05,-0.24,0.59,10.02,87.5,-115
3020,123.334,-0.44,0.62,0.05,-0.20,0.59,10.02,87.5,-115
3021,123.417,-0.44,0.61,0.05,-0.15,0.59,9.43,87.5,-115
3022,123.501,-0.37,0.58,0.05,-0.20,0.54,9.43,87.5,-115
3023,123.585,-0.39,0.55,0.05,-0.24,0.49,9.43,87.5,-115
3024,123.668,-0.34,0.61,0.00,-0.29,0.54,10.02,88.3,-125
3025,123.752,-0.40,0.64,0.05,-0.24,0.59,10.02,88.3,-125
3026,123.835,-0.40,0.59,0.05,-0.24,0.54,10.02,88.3,-125
3027,123.919,-0.40,0.64,0.05,-0.24,0.59,9.45,88.3,-125
3028,124.003,-0.36,0.74,-0.39,-0.39,0.49,9.46,88.3,-125
3029,124.086,-0.24,1.06,-0.69,-0.64,0.49,9.48,88.3,-125
3030,124.187,-0.26,0.85,0.00,-0.83,-0.15,10.07,88.9,-117
3031,124.287,-0.31,0.75,0.00,-0.74,-0.15,10.07,88.9,-117
3032,124.387,-0.31,0.74,0.00,-0.74,-0.10,10.07,88.9,-117
3033,124.487,-0.34,0.75,-0.05,-0.74,-0.15,9.46,88.9,-117
3034,124.588,-0.35,0.75,0.00,-0.74,-0.15,9.45,88.9,-117
3035,124.688,-0.38,0.73,0.00,-0.69,-0.24,9.43,88.9,-117
3036,124.772,-0.41,0.66,-0.15,-0.10,0.64,10.02,89.6,-113
3037,124.855,-0.36,0.41,-0.10,-0.05,0.39,10.02,89.6,-113
3038,124.939,-0.39,0.92,0.24,0.05,0.88,10.02,89.6,-113
3039,125.023,-0.39,0.99,0.34,0.00,0.93,9.43,89.6,-113
3040,125.106,-0.35,0.77,0.20,-0.15,0.74,9.43,89.6,-113
3041,125.190,-0.31,0.57,0.29,0.00,0.49,9.43,89.6,-113
3042,125.274,-0.31,1.48,0.20,0.00,1.47,10.02,90.2,-112
3043,125.357,-0.36,0.99,0.54,0.39,0.74,10.02,90.2,-112
3044,125.441,-0.36,1.22,-0.15,-0.29,1.18,10.02,90.2,-112
3045,125.524,-0.44,0.99,0.24,0.24,0.93,9.43,90.2,-112
3046,125.608,-0.35,0.49,0.29,-0.05,0.39,9.43,90.2,-112
3047,125.692,-0.31,0.52,0.39,0.05,0.34,9.43,90.2,-112
3048,125.775,-0.27,0.75,0.29,0.10,0.69,10.02,90.8,-112
3049,125.859,-0.29,0.70,0.24,0.15,0.64,10.02,90.8,-112
3050,125.943,-0.28,0.62,0.39,0.20,0.44,10.02,90.8,-112
3051,126.026,-0.28,0.63,0.34,0.29,0.44,9.43,90.8,-112
3052,126.110,-0.34,0.94,0.54,0.34,0.69,9.43,90.8,-112
3053,126.193,-0.35,2.57,1.18,-1.18,1.96,9.43,90.8,-112
3054,126.294,-0.32,0.61,0.54,0.20,0.20,10.01,91.3,-116
3055,126.394,-0.25,0.59,0.49,0.15,0.29,9.99,91.3,-116
3056,126.494,-0.31,0.74,0.49,0.15,0.54,9.97,91.3,-116
3057,126.595,-0.31,0.78,0.44,0.10,0.64,9.46,91.3,-116
3058,126.695,-0.31,0.59,0.39,0.05,0.44,9.54,91.3,-116
3059,126.795,-0.38,0.57,0.44,0.10,0.34,9.62,91.3,-116
3102,129.892,-0.40,0.90,0.00,0.64,0.64,7.91,62.2,-125
3103,130.092,-0.37,0.90,-0.05,0.64,0.64,7.90,62.2,-125
3104,130.292,-0.37,0.87,-0.05,0.64,0.59,7.89,62.2,-125
3105,130.492,-0.48,0.87,-0.05,0.64,0.59,7.36,62.2,-125
3106,130.692,-0.43,0.87,-0.05,0.59,0.64,7.30,62.2,-125
3107,130.892,-0.44,0.87,-0.05,0.64,0.59,7.23,62.2,-125
3108,130.976,-0.38,0.83,-0.05,0.59,0.59,7.68,64.4,-127
3109,131.059,-0.42,0.94,-0.10,0.69,0.64,7.68,64.4,-127
3110,131.143,-0.35,0.83,-0.05,0.59,0.59,7.68,64.4,-127
3111,131.227,-0.35,0.87,0.00,0.64,0.59,7.23,64.4,-127
3112,131.310,-0.38,0.83,-0.05,0.59,0.59,7.23,64.4,-127
3113,131.394,-0.38,0.90,-0.05,0.64,0.64,7.23,64.4,-127
3132,132.500,-0.36,0.56,0.00,-0.34,0.44,7.13,56.5,-122
3133,132.700,-0.45,0.74,0.00,-0.44,0.59,7.08,56.5,-122
3134,132.900,-0.45,0.70,-0.05,-0.54,0.44,7.02,56.5,-122
3135,133.100,-0.50,0.63,0.00,-0.49,0.39,6.55,56.5,-122
3136,133.300,-0.49,0.59,0.05,-0.39,0.44,6.50,56.5,-122
3137,133.500,-0.49,0.56,0.00,-0.34,0.44,6.45,56.5,-122
3156,134.591,-0.33,1.07,0.10,1.03,0.29,6.42,50.2,-115
3157,134.791,-0.30,1.14,0.15,1.13,0.05,6.37,50.2,-115
3158,134.991,-0.33,0.98,0.59,0.78,-0.05,6.33,50.2,-115
3159,135.191,-0.33,0.90,0.59,0.69,0.00,5.92,50.2,-115
3160,135.391,-0.39,2.47,1.81,-1.62,-0.44,5.88,50.2,-115
3161,135.591,-0.33,1.24,0.88,0.83,0.24,5.85,50.2,-115
3162,135.675,-0.30,0.71,0.15,0.10,0.69,6.22,53.1,-123
3163,135.759,-0.27,0.75,0.15,0.05,0.74,6.23,53.1,-123
3164,135.843,-0.31,0.59,0.24,0.05,0.54,6.23,53.1,-123
3165,135.927,-0.31,0.51,0.15,0.05,0.49,5.86,53.1,-123
3166,136.011,-0.32,0.61,0.29,0.00,0.54,5.86,53.1,-123
3167,136.095,-0.37,0.68,0.34,0.00,0.59,5.86,53.1,-123
3174,136.279,-0.34,0.53,-0.29,0.20,0.39,6.19,52.9,-120
3175,136.462,-0.30,0.57,-0.05,0.29,0.49,6.16,52.9,-120
3176,136.645,-0.28,0.70,0.00,0.29,0.64,6.12,52.9,-120
3177,136.829,-0.28,0.72,0.05,0.20,0.69,5.87,52.9,-120
3178,137.012,-0.23,0.55,0.00,0.10,0.54,5.88,52.9,-120
3179,137.195,-0.31,0.50,0.00,0.10,0.49,5.88,52.9,-120
3180,137.279,-0.32,0.58,-0.29,-0.44,0.24,6.30,55.7,-116
3181,137.362,-0.37,4.63,-1.18,-4.46,-0.44,6.34,55.7,-116
3182,137.446,-0.29,1.82,-1.32,-1.13,-0.54,6.39,55.7,-116
3183,137.530,-0.29,1.18,0.44,-1.08,-0.20,6.02,55.7,-116
3184,137.613,-0.34,1.04,-0.34,-0.88,-0.44,6.02,55.7,-116
3185,137.697,-0.39,0.95,-0.44,-0.69,-0.49,6.03,55.7,-116
3186,137.780,-0.36,0.93,-0.05,-0.78,-0.49,6.41,58.3,-120
3187,137.864,-0.30,0.82,0.00,-0.69,-0.44,6.42,58.3,-120
3188,137.947,-0.27,0.82,0.00,-0.69,-0.44,6.43,58.3,-120
3189,138.031,-0.27,0.83,-0.05,-0.74,-0.39,6.05,58.3,-120
3190,138.114,-0.26,0.88,0.00,-0.74,-0.49,6.05,58.3,-120
3191,138.197,-0.22,0.91,0.05,-0.74,-0.54,6.05,58.3,-120
3192,138.281,-0.20,0.93,-0.05,-0.78,-0.49,6.43,60.7,-117
3193,138.365,-0.18,0.88,0.00,-0.74,-0.49,6.43,60.7,-117
3194,138.449,-0.24,0.79,0.00,-0.69,-0.39,6.43,60.7,-117
3195,138.533,-0.24,0.82,0.00,-0.69,-0.44,6.05,60.7,-117
3196,138.617,-0.27,0.92,0.00,-0.78,-0.49,6.05,60.7,-117
3197,138.701,-0.24,0.88,0.00,-0.74,-0.49,6.05,60.7,-117
3198,138.801,-0.31,0.91,0.00,-0.74,-0.54,6.42,63.0,-124
3199,138.901,-0.31,0.88,0.00,-0.74,-0.49,6.41,63.0,-124
3200,139.002,-0.31,0.93,-0.05,-0.78,-0.49,6.41,63.0,-124
3201,139.102,-0.36,0.90,0.00,-0.78,-0.44,6.02,63.0,-124
3202,139.202,-0.33,0.88,0.00,-0.74,-0.49,6.02,63.0,-124
3203,139.303,-0.33,0.88,0.00,-0.74,-0.49,6.01,63.0,-124
3204,139.386,-0.43,0.88,0.00,-0.74,-0.49,6.39,65.2,-122
3205,139.470,-0.40,0.84,0.00,-0.69,-0.49,6.39,65.2,-122
3206,139.553,-0.40,0.86,-0.05,-0.74,-0.44,6.39,65.2,-122
3207,139.637,-0.43,0.90,0.00,-0.78,-0.44,6.01,65.2,-122
3208,139.721,-0.47,0.91,0.00,-0.74,-0.54,6.01,65.2,-122
3209,139.804,-0.47,0.86,0.00,-0.74,-0.44,6.01,65.2,-122
3210,139.888,-0.41,1.30,-0.05,-1.13,-0.64,6.39,67.2,-116
3211,139.972,-0.43,0.63,0.39,-0.49,0.05,6.39,67.2,-116
3212,140.055,-0.43,0.86,-0.39,-0.59,-0.49,6.39,67.2,-116
3213,140.139,-0.43,0.90,-0.05,-0.78,-0.44,6.02,67.2,-116
3214,140.223,-0.44,1.20,0.20,-1.03,-0.59,6.02,67.2,-116
3215,140.306,-0.42,0.84,0.05,-0.83,-0.05,6.03,67.2,-116
3216,140.390,-0.30,0.90,0.05,-0.88,0.15,6.41,69.2,-115
3217,140.473,-0.38,0.93,0.05,-0.93,0.00,6.42,69.2,-115
3218,140.557,-0.31,0.88,0.05,-0.88,-0.05,6.43,69.2,-115
3219,140.640,-0.31,0.83,0.00,-0.83,-0.05,6.05,69.2,-115
3220,140.724,-0.26,0.79,0.05,-0.78,0.00,6.05,69.2,-115
3221,140.807,-0.24,0.69,0.00,-0.69,0.05,6.05,69.2,-115
3222,140.891,-0.31,0.74,0.05,-0.74,0.00,6.43,71.0,-116
3223,140.975,-0.37,0.69,0.05,-0.69,0.10,6.43,71.0,-116
3224,141.059,-0.37,0.69,0.05,-0.69,0.10,6.43,71.0,-116
3225,141.142,-0.37,0.65,0.05,-0.64,0.10,6.05,71.0,-116
3226,141.226,-0.37,0.69,0.05,-0.69,0.10,6.05,71.0,-116
3227,141.310,-0.31,0.60,0.05,-0.59,0.10,6.05,71.0,-116
3228,141.410,-0.19,0.69,0.05,-0.69,0.05,6.42,72.7,-117
3229,141.510,-0.29,0.70,0.05,-0.69,0.15,6.41,72.7,-117
3230,141.611,-0.36,0.65,0.05,-0.64,0.10,6.41,72.7,-117
3231,141.711,-0.36,0.65,0.05,-0.64,0.10,6.02,72.7,-117
3232,141.811,-0.43,0.64,0.00,-0.64,0.10,6.02,72.7,-117
3233,141.912,-0.43,0.69,0.05,-0.69,0.10,6.01,72.7,-117
3240,142.079,-0.45,0.69,0.05,-0.69,0.05,6.35,70.3,-124
3241,142.245,-0.44,0.66,0.05,-0.64,0.15,6.32,70.3,-124
3242,142.412,-0.46,0.65,0.05,-0.64,0.10,6.29,70.3,-124
3243,142.579,-0.46,0.66,0.05,-0.64,0.15,5.89,70.3,-124
3244,142.746,-0.50,0.70,0.05,-0.69,0.15,5.87,70.3,-124
3245,142.913,-0.42,0.75,0.10,-0.74,0.10,5.85,70.3,-124
3246,142.996,-0.34,0.69,0.05,-0.69,0.05,6.22,72.0,-122
3247,143.080,-0.34,0.71,0.10,-0.69,0.15,6.23,72.0,-122
3248,143.164,-0.39,0.64,0.00,-0.64,0.10,6.23,72.0,-122
3249,143.247,-0.39,0.69,0.05,-0.69,0.10,7.19,72.0,-122
3250,143.331,-0.42,0.65,0.05,-0.64,0.10,7.25,72.0,-122
3251,143.415,-0.48,0.70,0.10,-0.69,0.10,7.32,72.0,-122
3252,143.515,-0.42,0.69,0.00,-0.69,0.10,7.83,73.6,-120
3253,143.615,-0.37,0.69,0.05,-0.69,0.10,7.89,73.6,-120
3254,143.716,-0.37,0.69,0.05,-0.69,0.10,7.95,73.6,-120
3255,143.816,-0.39,0.65,0.05,-0.64,0.10,7.48,73.6,-120
3256,143.916,-0.35,0.70,0.00,-0.69,0.15,7.47,73.6,-120
3257,144.016,-0.34,0.69,0.05,-0.69,0.10,7.46,73.6,-120
3258,144.100,-0.26,0.74,0.00,-0.74,0.10,7.92,75.2,-115
3259,144.183,-0.27,0.69,0.00,-0.69,0.10,7.92,75.2,-115
3260,144.267,-0.27,0.65,0.05,-0.64,0.10,7.92,75.2,-115
3261,144.350,-0.29,0.69,0.05,-0.69,0.10,8.10,75.2,-115
3262,144.434,-0.34,0.69,0.05,-0.69,0.05,8.18,75.2,-115
3263,144.517,-0.31,0.65,0.05,-0.64,0.10,8.26,75.2,-115
3264,144.601,-0.28,0.64,0.00,-0.64,0.05,8.87,76.6,-128
3265,144.685,-0.32,0.69,0.05,-0.69,0.10,8.96,76.6,-128
3266,144.769,-0.32,0.65,0.10,-0.64,0.10,9.05,76.6,-128
3267,144.852,-0.37,0.69,0.00,-0.69,0.10,9.36,76.6,-128
3268,144.936,-0.43,0.70,0.10,-0.69,0.10,9.46,76.6,-128
3269,145.020,-0.43,0.69,0.05,-0.69,0.10,9.57,76.6,-128
3270,145.104,-0.45,1.13,-0.44,-0.78,-0.69,10.29,78.0,-125
3271,145.187,-0.44,1.17,-0.59,-0.78,-0.64,10.41,78.0,-125
3272,145.271,-0.48,0.72,-0.15,-0.69,-0.15,10.54,78.0,-125
3273,145.355,-0.48,0.79,0.00,-0.78,-0.10,9.92,78.0,-125
3274,145.438,-0.41,1.13,0.10,-1.13,0.00,9.92,78.0,-125
3275,145.522,-0.42,1.33,0.10,-1.32,-0.15,9.92,78.0,-125
3282,145.706,-0.11,0.95,-0.49,-0.69,-0.44,10.43,75.0,-120
3283,145.889,-0.08,0.86,-0.39,-0.59,-0.49,10.33,75.0,-120
3284,146.073,0.04,1.32,-0.78,-0.88,-0.59,10.22,75.0,-120
3285,146.256,0.04,1.06,-0.59,-0.78,-0.39,9.62,75.0,-120
3286,146.440,-0.07,1.00,-0.54,-0.69,-0.49,9.62,75.0,-120
3287,146.623,-0.11,1.03,-0.64,-0.64,-0.49,9.62,75.0,-120
3288,146.707,-0.02,1.06,-0.78,-0.20,-0.69,10.33,76.5,-114
3289,146.791,-0.01,1.10,-0.78,-0.24,-0.74,10.43,76.5,-114
3290,146.874,-0.06,1.13,-0.83,-0.20,-0.74,10.54,76.5,-114
3291,146.958,-0.06,1.05,-0.69,-0.29,-0.74,9.92,76.5,-114
3292,147.041,-0.15,1.05,-0.69,-0.29,-0.74,9.92,76.5,-114
3293,147.125,-0.17,1.06,-0.74,-0.20,-0.74,9.92,76.5,-114
3294,147.208,-0.10,1.17,-0.83,-0.24,-0.78,10.54,77.8,-117
3295,147.292,-0.18,1.06,-0.78,-0.20,-0.69,10.54,77.8,-117
3296,147.376,-0.15,1.04,-0.74,-0.24,-0.69,10.54,77.8,-117
3297,147.459,-0.15,1.06,-0.78,-0.20,-0.69,9.92,77.8,-117
3298,147.543,-0.15,1.10,-0.78,-0.24,-0.74,9.92,77.8,-117
3299,147.627,-0.15,1.09,-0.78,-0.20,-0.74,9.92,77.8,-117
3300,147.710,0.00,1.09,-0.74,-0.34,-0.74,10.54,79.1,-120
3301,147.794,-0.03,1.02,-0.74,-0.29,-0.64,10.54,79.1,-120
3302,147.877,-0.03,1.08,-0.74,-0.29,-0.74,10.54,79.1,-120
3303,147.961,-0.03,1.02,-0.78,-0.29,-0.59,9.92,79.1,-120
3304,148.045,-0.09,0.97,-0.74,-0.24,-0.59,9.92,79.1,-120
3305,148.128,-0.10,0.96,-0.74,-0.29,-0.54,9.92,79.1,-120
3324,149.228,0.31,1.33,-0.34,-0.20,-1.27,9.54,68.0,-128
3325,149.428,0.32,1.19,-0.34,-0.20,-1.13,9.43,68.0,-128
3326,149.628,0.37,1.21,-0.24,-0.15,-1.18,9.33,68.0,-128
3327,149.828,0.37,1.19,-0.15,-0.34,-1.13,8.71,68.0,-128
3328,150.028,0.40,1.19,-0.24,-0.29,-1.13,8.63,68.0,-128
3329,150.228,0.47,1.26,-0.10,-0.44,-1.18,8.55,68.0,-128
3336,150.411,0.68,1.06,-0.05,-0.39,-0.98,9.02,66.1,-120
3337,150.595,0.70,1.06,-0.05,-0.39,-0.98,8.95,66.1,-120
3338,150.778,0.62,1.05,0.00,-0.49,-0.93,8.89,66.1,-120
3339,150.962,0.62,1.10,0.05,-0.49,-0.98,8.29,66.1,-120
3340,151.145,0.58,1.12,0.00,-0.54,-0.98,8.22,66.1,-120
3341,151.329,0.64,1.01,0.00,-0.39,-0.93,8.15,66.1,-120
3342,151.412,0.56,1.10,0.00,-0.59,-0.93,8.66,68.1,-116
3343,151.496,0.54,1.01,0.00,-0.49,-0.88,8.66,68.1,-116
3344,151.580,0.54,1.01,0.00,-0.49,-0.88,8.66,68.1,-116
3345,151.663,0.48,0.99,0.00,-0.44,-0.88,8.15,68.1,-116
3346,151.747,0.45,1.05,0.05,-0.49,-0.93,8.15,68.1,-116
3347,151.830,0.45,1.08,0.00,-0.54,-0.93,8.15,68.1,-116
3348,151.914,0.45,1.08,0.00,-0.54,-0.93,8.66,70.0,-115
3349,151.998,0.50,1.02,0.00,-0.59,-0.83,8.66,70.0,-115
3350,152.081,0.50,1.01,0.00,-0.49,-0.88,8.66,70.0,-115
3351,152.165,0.52,0.95,0.00,-0.54,-0.78,8.15,70.0,-115
3352,152.249,0.56,1.10,0.05,-0.59,-0.93,8.15,70.0,-115
3353,152.332,0.56,1.02,0.00,-0.59,-0.83,8.15,70.0,-115
3354,152.416,0.53,1.13,0.05,-0.64,-0.93,8.66,71.7,-116
3355,152.500,0.56,1.06,0.05,-0.59,-0.88,8.66,71.7,-116
3356,152.583,0.57,1.01,0.05,-0.49,-0.88,8.66,71.7,-116
3357,152.667,0.57,1.03,0.00,-0.54,-0.88,8.15,71.7,-116
3358,152.750,0.54,1.02,0.05,-0.59,-0.83,8.15,71.7,-116
3359,152.834,0.54,1.02,0.10,-0.59,-0.83,8.15,71.7,-116
3360,152.918,0.57,1.04,0.05,-0.54,-0.88,8.66,73.4,-116
3361,153.002,0.56,1.02,0.05,-0.59,-0.83,8.66,73.4,-116
3362,153.085,0.60,1.01,0.00,-0.49,-0.88,8.66,73.4,-116
3363,153.169,0.60,0.99,0.05,-0.54,-0.83,8.16,73.4,-116
3364,153.253,0.55,1.09,0.00,-0.64,-0.88,8.18,73.4,-116
3365,153.337,0.62,1.12,0.05,-0.69,-0.88,8.19,73.4,-116
3366,153.437,0.62,1.06,0.05,-0.59,-0.88,8.70,75.0,-120
3367,153.537,0.55,0.98,0.00,-0.59,-0.78,8.70,75.0,-120
3368,153.638,0.60,1.08,0.05,-0.54,-0.93,8.70,75.0,-120
3369,153.738,0.60,1.02,0.05,-0.59,-0.83,8.23,75.0,-120
3370,153.838,0.58,1.04,0.05,-0.54,-0.88,8.28,75.0,-120
3371,153.938,0.66,0.99,0.05,-0.54,-0.83,8.33,75.0,-120
3372,154.022,0.65,1.02,0.00,-0.59,-0.83,8.91,76.4,-116
3373,154.106,0.66,0.99,0.05,-0.54,-0.83,8.98,76.4,-116
3374,154.189,0.66,0.98,0.00,-0.59,-0.78,9.05,76.4,-116
3375,154.273,0.55,0.98,0.05,-0.59,-0.78,8.51,76.4,-116
3376,154.357,0.56,0.99,0.00,-0.54,-0.83,8.51,76.4,-116
3377,154.440,0.60,0.95,0.00,-0.54,-0.78,8.51,76.4,-116
3378,154.524,0.53,1.20,0.00,-0.69,-0.98,9.05,77.8,-122
3379,154.608,0.50,1.02,0.05,-0.59,-0.83,9.05,77.8,-122
3380,154.691,0.50,1.06,0.05,-0.59,-0.88,9.05,77.8,-122
3381,154.775,0.44,0.98,0.05,-0.59,-0.78,8.53,77.8,-122
3382,154.859,0.42,1.06,0.00,-0.59,-0.88,8.54,77.8,-122
3383,154.942,0.52,0.98,0.00,-0.59,-0.78,8.55,77.8,-122
3384,155.026,0.49,1.02,0.00,-0.59,-0.83,9.10,79.1,-124
3385,155.109,0.50,0.99,0.00,-0.54,-0.83,9.11,79.1,-124
3386,155.193,0.50,1.06,0.05,-0.59,-0.88,9.13,79.1,-124
3387,155.277,0.51,0.99,0.00,-0.54,-0.83,8.59,79.1,-124
3388,155.360,0.54,1.04,0.05,-0.54,-0.88,8.59,79.1,-124
3389,155.444,0.54,1.06,0.05,-0.59,-0.88,8.59,79.1,-124
3396,155.627,0.53,1.29,-0.69,-0.15,-1.08,9.05,76.0,-127
3397,155.811,0.51,1.21,-0.69,-0.20,-0.98,8.97,76.0,-127
3398,155.994,0.54,1.36,-0.83,0.00,-1.08,8.89,76.0,-127
3399,156.178,0.54,1.27,-0.74,-0.05,-1.03,8.29,76.0,-127
3400,156.361,0.53,1.16,-0.69,-0.05,-0.93,8.22,76.0,-127
3401,156.545,0.50,1.14,-0.64,-0.15,-0.93,8.15,76.0,-127
3402,156.628,0.53,1.21,-0.74,-0.24,-0.93,8.66,77.4,-115
3403,156.712,0.47,1.06,-0.64,-0.15,-0.83,8.66,77.4,-115
3404,156.795,0.55,1.15,-0.74,-0.10,-0.88,8.66,77.4,-115
3405,156.879,0.55,1.08,-0.69,-0.10,-0.83,8.15,77.4,-115
3406,156.963,0.50,1.00,-0.54,-0.10,-0.83,8.15,77.4,-115
3407,157.046,0.53,0.90,-0.49,-0.15,-0.74,8.15,77.4,-115
3408,157.130,0.58,1.19,-0.83,-0.15,-0.83,8.66,78.7,-112
3409,157.214,0.61,1.15,-0.83,-0.05,-0.78,8.66,78.7,-112
3410,157.297,0.62,1.11,-0.78,0.00,-0.78,8.66,78.7,-112
3411,157.381,0.62,1.18,-0.88,-0.05,-0.78,8.22,78.7,-112
3412,157.465,0.57,1.18,-0.83,-0.05,-0.83,8.29,78.7,-112
3413,157.548,0.63,1.15,-0.88,0.00,-0.74,8.37,78.7,-112
3414,157.632,0.62,1.21,-0.88,0.00,-0.83,8.97,79.9,-109
3415,157.715,0.57,1.08,-0.78,-0.05,-0.74,9.05,79.9,-109
3416,157.799,0.57,1.15,-0.83,-0.05,-0.78,9.13,79.9,-109
3417,157.883,0.57,1.15,-0.83,-0.05,-0.78,8.59,79.9,-109
3418,157.966,0.55,1.11,-0.78,-0.10,-0.78,8.59,79.9,-109
3419,158.050,0.60,1.08,-0.74,-0.05,-0.78,8.59,79.9,-109
3420,158.150,0.57,1.08,-0.78,-0.15,-0.74,9.11,81.1,-109
3421,158.250,0.51,1.05,-0.78,-0.15,-0.69,9.10,81.1,-109
3422,158.351,0.47,1.02,-0.74,-0.20,-0.69,9.09,81.1,-109
3423,158.451,0.47,1.05,-0.64,-0.10,-0.83,8.54,81.1,-109
3424,158.551,0.48,1.08,-0.74,-0.15,-0.78,8.53,81.1,-109
3425,158.652,0.44,1.05,-0.69,-0.15,-0.78,8.51,81.1,-109
3426,158.735,0.57,1.15,-0.74,-0.10,-0.88,9.05,82.2,-109
3427,158.819,0.47,1.09,-0.64,-0.10,-0.88,9.05,82.2,-109
3428,158.903,0.43,1.22,-0.78,-0.10,-0.93,9.05,82.2,-109
3429,158.986,0.43,1.11,-0.78,-0.10,-0.78,8.51,82.2,-109
3430,159.070,0.41,1.18,-0.78,-0.10,-0.88,8.51,82.2,-109
3431,159.153,0.44,1.15,-0.74,-0.10,-0.88,8.51,82.2,-109
3432,159.237,0.50,1.21,-0.83,0.00,-0.88,9.05,83.3,-108
3433,159.321,0.50,1.07,-0.74,0.00,-0.78,9.05,83.3,-108
3434,159.404,0.50,1.04,-0.74,0.00,-0.74,9.05,83.3,-108
3435,159.488,0.51,1.11,-0.74,-0.05,-0.83,9.36,83.3,-108
3436,159.572,0.48,1.18,-0.78,0.00,-0.88,9.46,83.3,-108
3437,159.655,0.45,1.18,-0.78,-0.05,-0.88,9.57,83.3,-108
3438,159.739,0.53,1.11,-0.74,-0.05,-0.83,10.29,84.2,-107
3439,159.822,0.53,1.14,-0.78,0.00,-0.83,10.41,84.2,-107
3440,159.906,0.52,1.18,-0.78,0.00,-0.88,10.54,84.2,-107
3441,159.990,0.52,1.21,-0.83,0.00,-0.88,10.02,84.2,-107
3442,160.073,0.44,1.11,-0.74,0.00,-0.83,10.13,84.2,-107
3443,160.157,0.50,1.18,-0.78,-0.05,-0.88,10.24,84.2,-107
3444,160.257,0.53,1.18,-0.83,-0.05,-0.83,10.97,85.2,-107
3445,160.358,0.50,1.08,-0.69,-0.10,-0.83,11.07,85.2,-107
3446,160.458,0.41,1.09,-0.69,-0.15,-0.83,11.17,85.2,-107
3447,160.558,0.41,1.18,-0.78,-0.05,-0.88,10.50,85.2,-107
3448,160.658,0.37,1.15,-0.78,-0.05,-0.83,10.48,85.2,-107
3449,160.759,0.48,1.23,-0.78,-0.15,-0.93,10.46,85.2,-107
3450,160.842,0.50,1.20,-0.78,-0.20,-0.88,11.11,86.0,-113
3451,160.926,0.52,1.16,-0.74,-0.15,-0.88,11.11,86.0,-113
3452,161.010,0.57,1.13,-0.69,-0.15,-0.88,11.11,86.0,-113
3453,161.093,0.57,1.16,-0.74,-0.20,-0.88,10.46,86.0,-113
3454,161.177,0.54,1.19,-0.69,-0.29,-0.93,10.46,86.0,-113
3455,161.260,0.61,1.19,-0.64,-0.24,-0.98,10.46,86.0,-113
3456,161.344,0.65,1.09,-0.29,-0.49,-0.93,11.11,86.8,-121
3457,161.427,0.62,1.01,-0.20,-0.44,-0.88,11.11,86.8,-121
3458,161.511,0.63,1.02,-0.15,-0.49,-0.88,11.11,86.8,-121
3459,161.594,0.63,0.98,-0.15,-0.49,-0.83,10.46,86.8,-121
3460,161.678,0.64,1.06,-0.10,-0.49,-0.93,10.46,86.8,-121
3461,161.761,0.63,0.99,-0.20,-0.49,-0.83,10.46,86.8,-121
3462,161.845,0.72,1.10,0.00,-0.59,-0.93,11.11,87.6,-116
3463,161.929,0.66,1.06,0.00,-0.59,-0.88,11.11,87.6,-116
3464,162.012,0.66,1.02,0.00,-0.59,-0.83,11.11,87.6,-116
3465,162.096,0.56,1.09,0.00,-0.64,-0.88,10.46,87.6,-116
3466,162.179,0.59,0.99,0.00,-0.54,-0.83,10.46,87.6,-116
3467,162.263,0.59,1.02,0.00,-0.59,-0.83,10.46,87.6,-116
3468,162.363,0.68,1.13,-0.05,-0.64,-0.93,11.09,88.3,-114
3469,162.464,0.67,1.06,0.00,-0.59,-0.88,11.07,88.3,-114
3470,162.564,0.68,1.03,0.00,-0.54,-0.88,11.05,88.3,-114
3471,162.664,0.68,1.06,0.00,-0.59,-0.88,10.40,88.3,-114
3472,162.764,0.73,1.05,0.00,-0.64,-0.83,10.40,88.3,-114
3473,162.865,0.69,0.99,0.00,-0.54,-0.83,10.40,88.3,-114
3474,162.948,0.71,0.97,0.00,-0.69,-0.69,11.07,89.0,-114
3475,163.032,0.72,0.94,0.00,-0.64,-0.69,11.09,89.0,-114
3476,163.116,0.72,0.97,0.05,-0.64,-0.74,11.11,89.0,-114
3477,163.199,0.69,0.98,0.10,-0.64,-0.74,10.46,89.0,-114
3478,163.283,0.72,0.91,0.10,-0.69,-0.59,10.46,89.0,-114
3479,163.366,0.64,1.02,0.15,-0.74,-0.69,10.46,89.0,-114
3480,163.450,0.66,1.12,-0.05,-0.69,-0.88,11.11,89.7,-108
3481,163.534,0.60,1.04,-0.05,-0.69,-0.78,11.11,89.7,-108
3482,163.617,0.57,1.05,-0.05,-0.64,-0.83,11.11,89.7,-108
3483,163.701,0.57,1.02,-0.05,-0.59,-0.83,10.46,89.7,-108
3484,163.785,0.56,1.12,0.00,-0.69,-0.88,10.46,89.7,-108
3485,163.868,0.61,1.12,-0.10,-0.69,-0.88,10.46,89.7,-108
3486,163.952,0.60,1.06,0.05,-0.59,-0.88,11.12,90.3,-107
3487,164.035,0.65,1.05,0.20,-0.54,-0.88,11.12,90.3,-107
3488,164.119,0.69,1.04,0.15,-0.54,-0.88,11.12,90.3,-107
3489,164.202,0.69,1.02,0.15,-0.49,-0.88,10.46,90.3,-107
3490,164.286,0.63,0.98,0.15,-0.49,-0.83,10.46,90.3,-107
3491,164.369,0.63,0.99,0.20,-0.49,-0.83,10.46,90.3,-107
3492,164.453,0.70,0.94,0.24,-0.20,-0.88,11.12,90.8,-107
3493,164.537,0.76,0.97,0.34,-0.20,-0.88,11.12,90.8,-107
3494,164.620,0.70,1.01,0.24,-0.29,-0.93,11.12,90.8,-107
3495,164.704,0.70,0.97,0.29,-0.29,-0.88,10.58,90.8,-107
3496,164.788,0.72,1.03,0.29,-0.34,-0.93,10.69,90.8,-107
3497,164.872,0.76,1.02,0.24,-0.34,-0.93,10.81,90.8,-107
3498,164.972,0.77,1.12,0.05,-0.54,-0.98,11.60,91.4,-113
3499,165.072,0.71,1.05,0.05,-0.49,-0.93,11.71,91.4,-113
3500,165.173,0.70,1.03,0.05,-0.44,-0.93,11.82,91.4,-113
3501,165.273,0.70,1.01,0.05,-0.39,-0.93,11.11,91.4,-113
3502,165.373,0.70,1.10,0.05,-0.49,-0.98,11.08,91.4,-113
3503,165.473,0.76,1.06,0.05,-0.39,-0.98,11.06,91.4,-113
3516,165.974,0.69,0.77,0.00,-0.49,-0.59,11.22,82.1,-126
3517,166.174,0.65,0.74,0.00,-0.44,-0.59,11.07,82.1,-126
3518,166.374,0.65,0.70,0.05,-0.49,-0.49,10.94,82.1,-126
3519,166.574,0.50,0.73,0.00,-0.49,-0.54,10.17,82.1,-126
3520,166.774,0.50,0.73,0.00,-0.49,-0.54,10.04,82.1,-126
3521,166.974,0.50,0.80,0.00,-0.59,-0.54,9.92,82.1,-126
3522,167.057,0.51,1.28,-0.24,-0.98,-0.78,10.54,83.2,-124
3523,167.141,0.45,1.15,-0.15,-0.83,-0.78,10.54,83.2,-124
3524,167.225,0.45,1.09,-0.20,-0.78,-0.74,10.54,83.2,-124
3525,167.308,0.45,1.08,-0.10,-0.78,-0.74,9.92,83.2,-124
3526,167.392,0.35,1.09,-0.20,-0.74,-0.78,9.92,83.2,-124
3527,167.476,0.30,1.05,-0.15,-0.74,-0.74,9.92,83.2,-124
3528,167.576,0.38,1.05,-0.44,-0.54,-0.78,10.52,84.1,-111
3529,167.676,0.27,0.98,-0.44,-0.54,-0.69,10.50,84.1,-111
3530,167.776,0.26,1.09,-0.39,-0.59,-0.83,10.49,84.1,-111
3531,167.877,0.26,1.15,-0.39,-0.69,-0.83,9.87,84.1,-111
3532,167.977,0.24,1.13,-0.34,-0.69,-0.83,9.87,84.1,-111
3533,168.077,0.24,1.09,-0.15,-0.69,-0.83,9.87,84.1,-111
3534,168.161,0.25,0.81,-0.15,-0.59,-0.54,10.50,85.1,-115
3535,168.244,0.28,0.74,0.00,-0.59,-0.44,10.52,85.1,-115
3536,168.328,0.36,0.73,-0.05,-0.54,-0.49,10.54,85.1,-115
3537,168.412,0.36,0.74,-0.05,-0.59,-0.44,9.92,85.1,-115
3538,168.495,0.40,0.80,0.00,-0.64,-0.49,9.92,85.1,-115
3539,168.579,0.49,0.74,0.00,-0.59,-0.44,9.92,85.1,-115
3540,168.662,0.49,0.94,0.10,-0.69,-0.64,10.54,85.9,-112
3541,168.746,0.52,0.91,0.15,-0.64,-0.64,10.54,85.9,-112
3542,168.829,0.62,0.80,0.10,-0.54,-0.59,10.54,85.9,-112
3543,168.912,0.62,0.74,0.15,-0.49,-0.54,9.92,85.9,-112
3544,168.996,0.58,0.77,0.10,-0.49,-0.59,9.92,85.9,-112
3545,169.079,0.62,0.75,0.20,-0.49,-0.54,9.92,85.9,-112
3552,169.263,0.80,0.70,0.15,-0.69,0.00,10.43,82.0,-112
3553,169.447,0.78,0.56,0.15,-0.54,-0.05,10.33,82.0,-112
3554,169.630,0.78,0.55,0.10,-0.54,-0.05,10.23,82.0,-112
3555,169.814,0.64,0.85,0.05,-0.83,-0.15,9.53,82.0,-112
3556,169.998,0.57,0.99,0.05,-0.98,-0.15,9.43,82.0,-112
3557,170.182,0.52,0.94,0.00,-0.93,-0.10,9.34,82.0,-112
3558,170.265,0.58,0.88,-0.39,-0.78,0.10,9.93,83.1,-111
3559,170.349,0.61,0.86,-0.34,-0.78,0.10,9.93,83.1,-111
3560,170.433,0.53,0.90,-0.29,-0.83,0.15,9.93,83.1,-111
3561,170.516,0.53,0.91,-0.34,-0.83,0.15,9.36,83.1,-111
3562,170.600,0.47,0.91,-0.34,-0.83,0.15,9.37,83.1,-111
3563,170.683,0.39,1.01,-0.29,-0.93,0.24,9.39,83.1,-111
3570,170.850,0.46,1.10,-0.69,-0.78,0.34,9.91,79.5,-114
3571,171.017,0.42,1.11,-0.74,-0.74,0.39,9.85,79.5,-114
3572,171.184,0.42,1.08,-0.69,-0.74,0.39,9.78,79.5,-114
3573,171.351,0.42,0.94,-0.59,-0.69,0.24,9.14,79.5,-114
3574,171.518,0.32,0.79,-0.44,-0.64,0.15,9.06,79.5,-114
3575,171.685,0.28,0.58,-0.24,-0.49,0.20,8.99,79.5,-114
3576,171.785,0.37,1.10,-0.59,-0.78,0.49,9.54,80.7,-114
3577,171.885,0.40,1.26,-0.69,-0.88,0.59,9.53,80.7,-114
3578,171.985,0.34,1.39,-0.78,-0.98,0.59,9.51,80.7,-114
3579,172.086,0.34,1.32,-0.74,-0.98,0.49,8.94,80.7,-114
3580,172.186,0.29,0.98,-0.39,-0.83,0.34,8.92,80.7,-114
3581,172.286,0.36,0.94,-0.39,-0.78,0.34,8.91,80.7,-114
3582,172.370,0.51,0.97,-0.34,-0.74,0.54,9.47,81.8,-125
3583,172.454,0.43,0.97,-0.34,-0.69,0.59,9.47,81.8,-125
3584,172.537,0.44,1.05,-0.20,-0.88,0.54,9.47,81.8,-125
3585,172.621,0.44,0.94,-0.05,-0.83,0.44,8.91,81.8,-125
3586,172.705,0.41,0.97,0.00,-0.83,0.49,8.91,81.8,-125
3587,172.788,0.37,0.86,0.05,-0.74,0.44,8.91,81.8,-125
3594,172.955,0.51,1.26,-0.93,-0.15,-0.83,9.39,78.4,-109
3595,173.122,0.48,1.22,-0.88,-0.15,-0.83,9.32,78.4,-109
3596,173.289,0.53,1.23,-0.88,-0.20,-0.83,9.25,78.4,-109
3597,173.455,0.53,1.23,-0.93,-0.15,-0.78,8.65,78.4,-109
3598,173.622,0.46,1.09,-0.88,-0.24,-0.59,8.60,78.4,-109
3599,173.789,0.49,1.17,-0.93,-0.29,-0.64,8.55,78.4,-109
3612,174.389,0.49,0.74,-0.34,-0.64,-0.15,8.70,71.3,-114
3613,174.589,0.49,0.71,-0.15,-0.69,-0.10,8.63,71.3,-114
3614,174.789,0.55,0.70,-0.15,-0.69,-0.05,8.55,71.3,-114
3615,174.989,0.55,0.72,-0.20,-0.69,-0.05,7.97,71.3,-114
3616,175.189,0.55,0.74,-0.20,-0.69,-0.20,7.90,71.3,-114
3617,175.389,0.59,0.82,-0.29,-0.74,-0.20,7.82,71.3,-114
3618,175.473,0.61,0.50,-0.05,-0.49,0.10,8.31,72.9,-120
3619,175.557,0.62,0.47,-0.10,-0.44,0.15,8.31,72.9,-120
3620,175.640,0.61,0.49,-0.39,-0.29,0.05,8.31,72.9,-120
3621,175.724,0.61,0.60,-0.10,-0.24,0.54,7.82,72.9,-120
3622,175.807,0.63,0.51,-0.49,0.00,0.15,7.82,72.9,-120
3623,175.891,0.58,0.65,-0.39,-0.39,0.34,7.82,72.9,-120
3624,175.975,0.57,0.83,-0.74,-0.39,-0.05,8.31,74.5,-113
3625,176.058,0.55,0.59,-0.54,-0.24,0.00,8.31,74.5,-113
3626,176.142,0.55,0.67,-0.59,-0.29,0.15,8.31,74.5,-113
3627,176.226,0.55,0.79,-0.69,-0.39,0.05,7.82,74.5,-113
3628,176.309,0.49,0.97,-0.83,-0.49,-0.05,7.82,74.5,-113
3629,176.393,0.56,0.96,-0.93,-0.24,-0.05,7.82,74.5,-113
3630,176.493,0.63,1.10,-0.98,0.05,-0.49,8.30,76.0,-109
3631,176.594,0.52,1.08,-0.93,0.05,-0.54,8.29,76.0,-109
3632,176.694,0.55,0.94,-0.78,0.15,-0.49,8.28,76.0,-109
3633,176.794,0.55,0.87,-0.78,0.15,-0.34,7.78,76.0,-109
3634,176.894,0.49,0.90,-0.83,0.20,-0.29,7.77,76.0,-109
3635,176.995,0.52,0.96,-0.88,0.24,-0.29,7.76,76.0,-109
3636,177.078,0.56,0.98,-0.83,-0.15,-0.49,8.24,77.4,-112
3637,177.162,0.45,0.90,-0.78,-0.20,-0.39,8.24,77.4,-112
3638,177.246,0.44,0.88,-0.83,0.00,-0.29,8.24,77.4,-112
3639,177.330,0.44,0.87,-0.83,0.00,-0.24,7.77,77.4,-112
3640,177.413,0.40,0.87,-0.83,0.00,-0.24,7.78,77.4,-112
3641,177.497,0.50,0.99,-0.93,-0.05,-0.34,7.79,77.4,-112
3642,177.580,0.51,1.49,-1.37,-0.20,-0.54,8.29,78.7,-113
3643,177.664,0.53,1.36,-1.27,0.00,-0.49,8.30,78.7,-113
3644,177.748,0.57,1.35,-1.27,0.05,-0.44,8.31,78.7,-113
3645,177.831,0.57,1.18,-1.13,0.00,-0.34,8.10,78.7,-113
3646,177.915,0.51,1.12,-1.08,-0.05,-0.29,8.18,78.7,-113
3647,177.998,0.58,1.07,-1.03,-0.15,-0.24,8.26,78.7,-113
3648,178.082,0.65,1.17,-0.88,-0.44,-0.64,8.86,80.0,-108
3649,178.166,0.54,1.06,-0.69,-0.49,-0.64,8.95,80.0,-108
3650,178.250,0.58,1.00,-0.64,-0.44,-0.64,9.05,80.0,-108
3651,178.334,0.58,0.95,-0.64,-0.39,-0.59,8.51,80.0,-108
3652,178.418,0.53,0.88,-0.69,-0.34,-0.44,8.51,80.0,-108
3653,178.502,0.58,0.89,-0.64,-0.39,-0.49,8.51,80.0,-108
3654,178.602,0.61,1.30,-0.29,-1.03,-0.74,9.03,81.2,-114
3655,178.702,0.56,1.31,-0.20,-1.03,-0.78,9.02,81.2,-114
3656,178.802,0.55,1.15,-0.20,-0.93,-0.64,9.01,81.2,-114
3657,178.902,0.55,0.92,-0.15,-0.74,-0.54,8.48,81.2,-114
3658,179.002,0.49,0.89,-0.05,-0.74,-0.49,8.48,81.2,-114
3659,179.102,0.56,0.84,-0.10,-0.64,-0.54,8.48,81.2,-114
3660,179.185,0.65,1.08,0.10,-0.93,-0.54,9.02,82.3,-116
3661,179.269,0.68,1.04,0.15,-0.88,-0.54,9.03,82.3,-116
3662,179.353,0.66,1.06,0.10,-0.93,-0.49,9.05,82.3,-116
3663,179.436,0.66,1.04,0.05,-0.88,-0.54,8.51,82.3,-116
3664,179.520,0.68,0.83,0.05,-0.74,-0.39,8.51,82.3,-116
3665,179.603,0.67,0.82,0.05,-0.69,-0.44,8.51,82.3,-116
3666,179.687,0.87,0.97,0.39,-0.83,-0.29,9.05,83.3,-117
3667,179.771,0.82,0.99,0.34,-0.88,-0.29,9.05,83.3,-117
3668,179.854,0.81,1.05,0.29,-0.98,-0.24,9.05,83.3,-117
3669,179.938,0.81,0.98,0.24,-0.93,-0.20,8.51,83.3,-117
3670,180.022,0.79,0.83,0.29,-0.74,-0.24,8.51,83.3,-117
3671,180.105,0.80,0.73,0.29,-0.64,-0.20,8.51,83.3,-117
3672,180.189,0.81,0.77,-0.10,-0.54,0.54,9.05,84.3,-122
3673,180.273,0.81,0.86,0.00,-0.34,0.78,9.04,84.3,-122
3674,180.356,0.75,0.92,0.05,-0.39,0.83,9.04,84.3,-122
3675,180.440,0.75,0.73,0.05,-0.24,0.69,8.59,84.3,-122
3676,180.524,0.71,0.56,0.05,-0.15,0.54,8.67,84.3,-122
3677,180.607,0.69,0.57,0.00,-0.20,0.54,8.75,84.3,-122
3684,180.791,0.71,0.91,-0.15,0.34,0.83,9.29,80.6,-114
3685,180.974,0.64,0.95,-0.24,0.24,0.88,9.29,80.6,-114
3686,181.157,0.62,0.92,-0.34,0.20,0.83,9.29,80.6,-114
3687,181.341,0.62,0.90,-0.24,0.24,0.83,8.67,80.6,-114
3688,181.524,0.63,0.88,-0.24,0.15,0.83,8.59,80.6,-114
3689,181.707,0.60,0.96,-0.20,0.15,0.93,8.51,80.6,-114
3690,181.791,0.59,0.67,-0.29,0.34,0.49,9.05,81.7,-111
3691,181.874,0.52,0.82,-0.29,0.34,0.69,9.05,81.7,-111
3692,181.958,0.62,0.87,-0.24,0.29,0.78,9.05,81.7,-111
3693,182.041,0.62,1.00,-0.24,0.39,0.88,8.58,81.7,-111
3694,182.125,0.58,0.87,-0.29,0.44,0.69,8.64,81.7,-111
3695,182.208,0.53,0.79,-0.34,0.39,0.59,8.71,81.7,-111
3696,182.292,0.58,0.72,-0.29,0.29,0.59,9.32,82.8,-112
3697,182.375,0.61,0.72,-0.24,0.34,0.59,9.39,82.8,-112
3698,182.459,0.65,0.80,-0.29,0.39,0.64,9.47,82.8,-112
3699,182.543,0.65,0.84,-0.29,0.39,0.69,8.92,82.8,-112
3700,182.626,0.55,0.84,-0.20,0.24,0.78,8.94,82.8,-112
3701,182.710,0.63,0.75,-0.24,0.20,0.69,8.95,82.8,-112
3702,182.810,0.74,0.82,-0.44,0.10,0.69,9.51,83.8,-114
3703,182.910,0.69,0.88,-0.44,0.20,0.74,9.51,83.8,-114
3704,183.011,0.71,0.79,-0.34,0.20,0.69,9.51,83.8,-114
3705,183.111,0.71,0.77,-0.29,0.20,0.69,8.94,83.8,-114
3706,183.211,0.64,0.70,-0.24,0.15,0.64,8.92,83.8,-114
3707,183.312,0.68,0.72,-0.34,0.24,0.59,8.91,83.8,-114
3708,183.395,0.82,0.76,-0.20,0.00,0.74,9.47,84.7,-114
3709,183.479,0.79,0.76,-0.20,0.05,0.74,9.47,84.7,-114
3710,183.562,0.79,0.74,-0.24,0.15,0.69,9.47,84.7,-114
3711,183.646,0.75,0.70,-0.34,0.15,0.59,8.98,84.7,-114
3712,183.730,0.70,0.67,-0.29,0.15,0.59,9.05,84.7,-114
3713,183.813,0.68,0.74,-0.34,0.15,0.64,9.12,84.7,-114
3720,183.980,0.81,0.70,-0.29,0.05,0.64,9.69,80.9,-122
3721,184.147,0.81,0.67,-0.20,0.00,0.64,9.69,80.9,-122
3722,184.314,0.79,0.68,-0.24,0.05,0.64,9.69,80.9,-122
3723,184.481,0.79,0.61,-0.15,0.05,0.59,9.51,80.9,-122
3724,184.648,0.76,0.62,-0.20,0.00,0.59,9.54,80.9,-122
3725,184.814,0.81,0.61,-0.15,0.00,0.59,9.58,80.9,-122
3726,184.898,0.84,0.79,0.00,-0.05,0.78,10.29,82.1,-116
3727,184.981,0.80,0.74,0.00,0.00,0.74,10.42,82.1,-116
3728,185.064,0.80,0.53,-0.05,-0.20,0.49,10.54,82.1,-116
3729,185.148,0.80,0.55,0.05,-0.10,0.54,9.92,82.1,-116
3730,185.231,0.85,0.60,0.00,-0.10,0.59,9.92,82.1,-116
3731,185.314,0.85,0.55,-0.05,-0.10,0.54,9.92,82.1,-116
3732,185.415,0.82,0.57,0.00,-0.29,0.49,10.53,83.1,-116
3733,185.515,0.72,0.57,0.00,-0.20,0.54,10.51,83.1,-116
3734,185.616,0.72,0.61,0.00,-0.15,0.59,10.49,83.1,-116
3735,185.717,0.69,0.58,-0.05,-0.20,0.54,9.85,83.1,-116
3736,185.817,0.73,0.72,-0.15,-0.15,0.69,9.84,83.1,-116
3737,185.918,0.73,0.78,-0.15,-0.59,0.49,9.82,83.1,-116
3738,186.002,0.77,0.66,-0.05,-0.44,0.49,10.43,84.1,-115
3739,186.085,0.78,0.69,0.00,-0.49,0.49,10.43,84.1,-115
3740,186.169,0.73,0.62,0.00,-0.44,0.44,10.43,84.1,-115
3741,186.252,0.73,0.52,0.00,-0.34,0.39,9.84,84.1,-115
3742,186.336,0.72,0.39,0.05,-0.24,0.29,9.85,84.1,-115
3743,186.420,0.71,0.49,0.05,-0.29,0.39,9.87,84.1,-115
3750,186.587,0.62,0.59,0.05,-0.59,-0.05,10.42,80.4,-115
3751,186.753,0.72,0.44,0.05,-0.44,0.00,10.35,80.4,-115
3752,186.920,0.72,0.45,0.05,-0.44,-0.05,10.28,80.4,-115
3753,187.087,0.72,0.39,0.00,-0.39,0.00,9.59,80.4,-115
3754,187.254,0.65,0.50,0.05,-0.49,0.10,9.51,80.4,-115
3755,187.421,0.75,0.57,0.10,-0.54,0.15,9.43,80.4,-115
3756,187.521,0.80,0.46,0.05,-0.24,0.39,10.01,81.5,-108
3757,187.621,0.77,0.59,0.05,-0.24,0.54,9.99,81.5,-108
3758,187.722,0.81,0.57,0.10,-0.15,0.54,9.98,81.5,-108
3759,187.822,0.81,0.56,0.15,-0.05,0.54,9.37,81.5,-108
3760,187.922,0.80,0.50,0.10,-0.05,0.49,9.36,81.5,-108
3761,188.022,0.81,0.34,0.00,0.00,0.34,9.34,81.5,-108
3762,188.106,0.78,0.50,0.00,0.10,0.49,9.93,82.6,-107
3763,188.190,0.78,0.53,0.05,0.20,0.49,9.93,82.6,-107
3764,188.273,0.78,0.47,0.10,0.24,0.39,9.93,82.6,-107
3765,188.357,0.82,0.64,0.24,0.10,0.59,9.34,82.6,-107
3766,188.441,0.79,0.77,0.39,0.20,0.64,9.34,82.6,-107
3767,188.524,0.82,0.69,0.39,0.20,0.54,9.34,82.6,-107
3768,188.608,0.91,0.67,0.54,0.34,0.20,9.93,83.6,-106
3769,188.691,0.84,0.80,0.69,0.29,0.29,9.93,83.6,-106
3770,188.775,0.80,0.88,0.74,0.34,0.34,9.93,83.6,-106
3771,188.859,0.80,0.83,0.64,0.44,0.29,9.36,83.6,-106
3772,188.942,0.80,0.72,0.54,0.44,0.20,9.37,83.6,-106
3773,189.026,0.78,0.71,0.59,0.39,0.10,9.39,83.6,-106
3774,189.110,0.83,0.74,0.54,0.44,0.24,9.99,84.6,-106
3775,189.193,0.89,0.69,0.49,0.44,0.20,10.01,84.6,-106
3776,189.277,0.86,0.71,0.54,0.44,0.15,10.02,84.6,-106
3777,189.360,0.86,0.65,0.44,0.44,0.20,9.43,84.6,-106
3778,189.444,0.78,0.79,0.54,0.49,0.29,9.43,84.6,-106
3779,189.528,0.82,0.78,0.54,0.44,0.34,9.43,84.6,-106
3780,189.611,0.84,1.07,0.88,0.49,0.34,10.02,85.5,-106
3781,189.695,0.78,1.21,1.03,0.49,0.39,10.02,85.5,-106
3782,189.779,0.74,1.50,1.27,0.59,0.54,10.02,85.5,-106
3783,189.863,0.74,1.46,1.22,0.59,0.54,9.43,85.5,-106
3784,189.946,0.69,0.86,0.69,0.49,0.15,9.43,85.5,-106
3785,190.030,0.70,0.72,0.54,0.44,0.20,9.43,85.5,-106
3786,190.130,0.80,0.83,0.59,0.05,0.59,10.01,86.3,-114
3787,190.231,0.75,0.77,0.49,0.00,0.59,9.99,86.3,-114
3788,190.331,0.70,0.87,0.54,0.00,0.69,9.98,86.3,-114
3789,190.431,0.70,1.01,0.74,0.00,0.69,9.37,86.3,-114
3790,190.532,0.67,1.08,0.83,0.00,0.69,9.36,86.3,-114
3791,190.632,0.65,1.06,0.88,0.00,0.59,9.34,86.3,-114
3816,192.230,0.89,0.52,0.44,0.15,0.24,8.65,69.7,-106
3817,192.430,0.86,0.59,0.49,0.15,0.29,8.57,69.7,-106
3818,192.630,0.75,0.71,0.59,0.10,0.39,8.48,69.7,-106
3819,192.830,0.75,0.81,0.64,0.10,0.49,7.97,69.7,-106
3820,193.030,0.72,0.81,0.64,0.10,0.49,7.96,69.7,-106
3821,193.230,0.70,0.74,0.59,0.05,0.44,7.95,69.7,-106
3822,193.314,0.78,0.52,0.34,0.05,0.39,8.52,71.5,-113
3823,193.398,0.77,0.52,0.34,0.05,0.39,8.59,71.5,-113
3824,193.481,0.78,0.64,0.34,0.00,0.54,8.66,71.5,-113
3825,193.565,0.78,0.67,0.39,-0.05,0.54,8.15,71.5,-113
3826,193.649,0.73,0.77,0.49,-0.10,0.59,8.15,71.5,-113
3827,193.732,0.73,0.71,0.39,-0.05,0.59,8.15,71.5,-113
3828,193.816,0.71,0.59,0.39,0.00,0.44,8.66,73.2,-116
3829,193.900,0.69,0.49,0.29,0.05,0.39,8.66,73.2,-116
3830,193.983,0.69,0.53,0.29,0.00,0.44,8.66,73.2,-116
3831,194.067,0.65,0.56,0.34,0.00,0.44,8.15,73.2,-116
3832,194.150,0.66,0.60,0.34,0.00,0.49,8.15,73.2,-116
3833,194.234,0.66,0.67,0.39,0.00,0.54,8.15,73.2,-116
3834,194.334,0.65,0.45,0.05,-0.10,0.44,8.65,74.7,-115
3835,194.435,0.69,0.45,0.10,-0.05,0.44,8.64,74.7,-115
3836,194.535,0.73,0.39,0.00,-0.05,0.39,8.63,74.7,-115
3837,194.635,0.73,0.51,-0.05,-0.15,0.49,8.12,74.7,-115
3838,194.735,0.63,0.58,-0.05,-0.20,0.54,8.12,74.7,-115
3839,194.836,0.68,0.66,0.00,-0.29,0.59,8.12,74.7,-115
3846,195.003,0.62,0.25,0.00,-0.05,0.24,8.58,72.1,-106
3847,195.169,0.60,0.35,0.00,-0.05,0.34,8.53,72.1,-106
3848,195.336,0.60,0.26,0.00,-0.10,0.24,8.48,72.1,-106
3849,195.503,0.51,0.45,0.05,-0.10,0.44,7.93,72.1,-106
3850,195.670,0.43,0.40,0.00,-0.10,0.39,7.87,72.1,-106
3851,195.837,0.48,0.45,0.05,-0.05,0.44,7.82,72.1,-106
3858,196.004,0.51,0.26,0.00,-0.10,0.24,8.25,69.8,-106
3859,196.171,0.46,0.15,0.00,0.00,0.15,8.20,69.8,-106
3860,196.337,0.46,0.25,0.00,0.05,0.24,8.14,69.8,-106
3861,196.504,0.45,0.21,-0.05,0.05,0.20,7.67,69.8,-106
3862,196.671,0.40,0.29,-0.15,0.00,0.24,7.67,69.8,-106
3863,196.838,0.47,0.27,-0.10,-0.05,0.24,7.67,69.8,-106
3864,196.938,0.48,0.55,0.00,0.10,0.54,8.19,71.5,-104
3865,197.038,0.56,0.64,0.00,0.00,0.64,8.23,71.5,-104
3866,197.139,0.56,0.50,-0.05,-0.05,0.49,8.28,71.5,-104
3867,197.239,0.57,0.46,-0.15,0.00,0.44,7.78,71.5,-104
3868,197.339,0.55,0.44,-0.20,0.00,0.39,7.77,71.5,-104
3869,197.439,0.55,0.46,-0.10,-0.10,0.44,7.76,71.5,-104
3870,197.523,0.49,0.35,-0.05,-0.05,0.34,8.24,73.2,-113
3871,197.606,0.54,0.35,0.00,-0.05,0.34,8.24,73.2,-113
3872,197.690,0.68,0.30,-0.05,-0.05,0.29,8.24,73.2,-113
3873,197.773,0.68,0.25,-0.05,-0.05,0.24,7.77,73.2,-113
3874,197.857,0.55,0.31,-0.10,0.00,0.29,7.78,73.2,-113
3875,197.940,0.64,0.36,-0.10,0.00,0.34,7.79,73.2,-113
3876,198.024,0.70,0.38,-0.15,-0.05,0.34,8.29,74.8,-109
3877,198.107,0.65,0.52,-0.15,0.10,0.49,8.30,74.8,-109
3878,198.191,0.68,0.69,-0.05,0.05,0.69,8.31,74.8,-109
3879,198.275,0.68,0.69,0.00,0.00,0.69,7.82,74.8,-109
3880,198.358,0.66,0.49,0.00,-0.05,0.49,7.82,74.8,-109
3881,198.442,0.69,0.39,0.00,0.00,0.39,7.82,74.8,-109
3882,198.525,0.64,0.73,-0.29,-0.20,0.64,8.31,76.2,-111
3883,198.609,0.56,0.71,-0.29,-0.10,0.64,8.31,76.2,-111
3884,198.693,0.61,0.45,-0.05,-0.10,0.44,8.31,76.2,-111
3885,198.776,0.61,0.49,0.00,-0.05,0.49,7.88,76.2,-111
3886,198.860,0.55,0.31,-0.05,0.10,0.29,7.93,76.2,-111
3887,198.944,0.59,0.30,0.00,0.05,0.29,7.98,76.2,-111
3888,199.044,0.69,0.42,-0.10,-0.10,0.39,8.53,77.6,-111
3889,199.144,0.70,0.55,-0.24,0.00,0.49,8.58,77.6,-111
3890,199.244,0.66,0.56,-0.15,0.05,0.54,8.63,77.6,-111
3891,199.344,0.66,0.51,-0.15,0.05,0.49,8.12,77.6,-111
3892,199.444,0.62,0.45,-0.05,0.05,0.44,8.12,77.6,-111
3893,199.544,0.65,0.45,-0.10,-0.05,0.44,8.12,77.6,-111
3894,199.628,0.66,0.83,-0.49,-0.20,0.64,8.64,78.9,-115
3895,199.711,0.70,0.79,-0.44,-0.15,0.64,8.65,78.9,-115
3896,199.795,0.67,0.49,-0.20,-0.10,0.44,8.66,78.9,-115
3897,199.879,0.67,0.38,-0.15,-0.05,0.34,8.15,78.9,-115
3898,199.962,0.59,0.36,-0.10,0.05,0.34,8.15,78.9,-115
3899,200.046,0.60,0.25,0.00,0.05,0.24,8.15,78.9,-115
3900,200.130,0.68,0.33,-0.15,-0.05,0.29,8.66,80.2,-106
3901,200.213,0.57,0.39,-0.15,0.10,0.34,8.66,80.2,-106
3902,200.297,0.54,0.54,-0.20,0.10,0.49,8.66,80.2,-106
3903,200.380,0.54,0.52,-0.24,0.15,0.44,8.15,80.2,-106
3904,200.464,0.52,0.55,-0.24,0.05,0.49,8.15,80.2,-106
3905,200.548,0.59,0.46,-0.15,0.00,0.44,8.15,80.2,-106
3906,200.631,0.67,0.94,-0.54,-0.24,0.74,8.66,81.3,-116
3907,200.715,0.66,0.91,-0.49,-0.20,0.74,8.66,81.3,-116
3908,200.798,0.69,0.80,-0.44,-0.20,0.64,8.66,81.3,-116
3909,200.882,0.69,0.60,-0.24,-0.10,0.54,8.15,81.3,-116
3910,200.965,0.70,0.51,-0.15,-0.05,0.49,8.15,81.3,-116
3911,201.049,0.74,0.35,-0.05,0.00,0.34,8.15,81.3,-116
3918,201.232,0.71,0.88,-0.49,-0.24,0.69,8.59,77.9,-113
3919,201.416,0.75,0.89,-0.44,-0.24,0.74,8.52,77.9,-113
3920,201.600,0.69,0.76,-0.39,-0.15,0.64,8.45,77.9,-113
3921,201.783,0.69,0.65,-0.34,-0.10,0.54,7.89,77.9,-113
3922,201.967,0.68,0.44,-0.20,-0.05,0.39,7.82,77.9,-113
3923,202.150,0.68,0.37,-0.15,0.00,0.34,7.76,77.9,-113
3924,202.234,0.74,0.50,-0.05,-0.10,0.49,8.24,79.2,-107
3925,202.318,0.67,0.49,-0.05,0.00,0.49,8.24,79.2,-107
3926,202.401,0.71,0.58,-0.20,0.10,0.54,8.25,79.2,-107
3927,202.485,0.71,0.62,-0.29,0.10,0.54,7.77,79.2,-107
3928,202.569,0.64,0.62,-0.29,0.05,0.54,7.78,79.2,-107
3929,202.652,0.72,0.67,-0.20,0.00,0.64,7.79,79.2,-107
3936,202.836,0.86,0.54,-0.05,0.05,0.54,8.22,76.1,-103
3937,203.019,0.79,0.55,0.00,0.10,0.54,8.17,76.1,-103
3938,203.203,0.78,0.59,-0.15,0.29,0.49,8.11,76.1,-103
3939,203.386,0.78,0.55,-0.24,0.29,0.39,8.61,76.1,-103
3940,203.569,0.81,0.58,-0.34,0.15,0.44,8.62,76.1,-103
3941,203.753,0.76,0.51,-0.24,0.10,0.44,8.63,76.1,-103
3948,203.920,0.92,1.00,-0.54,-0.15,0.83,9.20,73.3,-103
3949,204.086,0.86,0.74,-0.20,-0.20,0.69,9.23,73.3,-103
3950,204.253,0.83,0.45,-0.05,-0.10,0.44,9.25,73.3,-103
3951,204.420,0.83,0.45,-0.05,-0.10,0.44,8.64,73.3,-103
3952,204.586,0.69,0.42,-0.15,0.00,0.39,8.58,73.3,-103
3953,204.753,0.69,0.42,-0.15,0.05,0.39,8.52,73.3,-103
3954,204.837,0.75,1.11,-0.64,-0.20,0.88,9.05,74.9,-112
3955,204.920,0.75,1.08,-0.44,-0.10,0.98,9.05,74.9,-112
3956,205.004,0.70,1.08,-0.44,-0.15,0.98,9.05,74.9,-112
3957,205.088,0.70,1.11,-0.49,-0.15,0.98,8.52,74.9,-112
3958,205.172,0.62,1.10,-0.54,-0.24,0.93,8.52,74.9,-112
3959,205.256,0.68,1.04,-0.49,-0.24,0.88,8.52,74.9,-112
3960,205.339,0.77,1.23,-0.78,-0.34,0.88,9.05,76.3,-108
3961,205.423,0.68,0.98,-0.39,-0.34,0.83,9.05,76.3,-108
3962,205.507,0.74,0.78,-0.05,-0.24,0.74,9.05,76.3,-108
3963,205.590,0.74,0.60,-0.10,-0.10,0.59,8.53,76.3,-108
3964,205.674,0.69,0.54,-0.05,0.05,0.54,8.54,76.3,-108
3965,205.757,0.67,0.55,-0.20,0.15,0.49,8.55,76.3,-108
3966,205.858,0.73,1.25,-0.74,-0.39,0.93,9.09,77.7,-106
3967,205.958,0.67,1.35,-0.74,-0.34,1.08,9.09,77.7,-106
3968,206.058,0.71,1.13,-0.44,-0.34,0.98,9.09,77.7,-106
3969,206.159,0.71,0.92,-0.29,-0.24,0.83,8.61,77.7,-106
3970,206.259,0.64,0.88,-0.29,-0.39,0.74,8.66,77.7,-106
3971,206.359,0.71,0.84,-0.39,-0.29,0.69,8.71,77.7,-106
3972,206.443,0.73,1.39,-1.03,-0.29,0.88,9.32,79.0,-108
3973,206.526,0.67,1.32,-0.93,-0.29,0.88,9.40,79.0,-108
3974,206.610,0.62,0.96,-0.54,-0.29,0.74,9.47,79.0,-108
3975,206.694,0.62,0.65,-0.15,-0.24,0.59,8.98,79.0,-108
3976,206.777,0.60,0.45,-0.05,-0.10,0.44,9.05,79.0,-108
3977,206.861,0.70,0.39,-0.05,0.00,0.39,9.12,79.0,-108
3978,206.945,0.77,1.52,-1.03,-0.44,1.03,9.77,80.2,-113
3979,207.028,0.77,1.59,-1.03,-0.44,1.13,9.85,80.2,-113
3980,207.112,0.80,1.38,-0.59,-0.54,1.13,9.93,80.2,-113
3981,207.195,0.80,1.17,-0.39,-0.39,1.03,9.36,80.2,-113
3982,207.279,0.80,0.93,-0.29,-0.29,0.83,9.37,80.2,-113
3983,207.363,0.86,1.01,-0.39,-0.29,0.88,9.39,80.2,-113
3984,207.446,0.92,1.31,-0.93,-0.24,0.88,9.99,81.4,-103
3985,207.530,0.90,1.16,-0.83,-0.20,0.78,10.01,81.4,-103
3986,207.613,0.94,1.06,-0.74,-0.20,0.74,10.03,81.4,-103
3987,207.697,0.94,0.83,-0.49,-0.20,0.64,9.44,81.4,-103
3988,207.781,0.86,0.62,-0.24,-0.20,0.54,9.44,81.4,-103
3989,207.864,0.92,0.51,-0.24,-0.05,0.44,9.44,81.4,-103
3990,207.964,0.91,1.36,-0.88,-0.34,0.98,10.01,82.5,-104
3991,208.065,0.90,1.39,-0.98,-0.34,0.93,9.99,82.5,-104
3992,208.165,0.86,1.34,-0.78,-0.34,1.03,9.98,82.5,-104
3993,208.265,0.86,1.07,-0.49,-0.34,0.88,9.37,82.5,-104
3994,208.366,0.87,1.05,-0.49,-0.29,0.88,9.36,82.5,-104
3995,208.466,0.87,0.99,-0.64,-0.20,0.74,9.34,82.5,-104
3996,208.550,0.95,1.42,-1.13,-0.24,0.83,9.93,83.5,-102
3997,208.633,0.90,1.35,-0.98,-0.29,0.88,9.93,83.5,-102
3998,208.717,0.83,1.14,-0.78,-0.24,0.78,9.93,83.5,-102
3999,208.800,0.83,0.79,-0.39,-0.24,0.64,9.34,83.5,-102
4000,208.884,0.81,0.61,-0.10,-0.15,0.59,9.34,83.5,-102
4001,208.968,0.86,0.51,-0.15,0.00,0.49,9.34,83.5,-102
4002,209.051,0.93,0.99,-0.64,-0.20,0.74,9.93,84.5,-103
4003,209.135,0.92,1.16,-0.69,-0.29,0.88,9.93,84.5,-103
4004,209.219,0.85,1.43,-0.98,-0.34,0.98,9.93,84.5,-103
4005,209.302,0.85,1.48,-1.03,-0.29,1.03,9.36,84.5,-103
4006,209.386,0.89,1.04,-0.54,-0.29,0.83,9.37,84.5,-103
4007,209.469,0.89,0.99,-0.49,-0.34,0.78,9.39,84.5,-103
4008,209.553,0.92,1.06,-0.88,-0.24,0.54,9.99,85.4,-104
4009,209.637,0.84,1.15,-0.93,-0.20,0.64,10.01,85.4,-104
4010,209.720,0.87,1.25,-0.98,-0.24,0.74,10.02,85.4,-104
4011,209.804,0.87,1.26,-1.08,-0.15,0.64,9.43,85.4,-104
4012,209.888,0.81,1.17,-1.03,-0.15,0.54,9.43,85.4,-104
4013,209.971,0.77,1.01,-0.88,-0.20,0.44,9.43,85.4,-104
4014,210.071,0.79,0.94,-0.59,-0.05,0.74,10.01,86.2,-98
4015,210.172,0.79,1.27,-0.78,-0.20,0.98,9.99,86.2,-98
4016,210.272,0.76,1.38,-0.98,-0.29,0.93,9.97,86.2,-98
4017,210.372,0.76,1.39,-0.93,-0.44,0.93,9.37,86.2,-98
4018,210.472,0.74,1.28,-0.78,-0.49,0.88,9.36,86.2,-98
4019,210.573,0.84,1.14,-0.49,-0.44,0.93,9.34,86.2,-98
4020,210.656,0.94,1.26,-1.08,-0.29,0.59,9.93,87.0,-97
4021,210.740,0.83,1.45,-1.22,-0.24,0.74,9.93,87.0,-97
4022,210.823,0.78,1.49,-1.27,-0.24,0.74,9.93,87.0,-97
4023,210.907,0.78,1.41,-1.18,-0.24,0.74,9.34,87.0,-97
4024,210.991,0.74,1.07,-0.83,-0.20,0.64,9.34,87.0,-97
4025,211.074,0.74,0.72,-0.39,-0.15,0.59,9.34,87.0,-97
4026,211.158,0.83,0.67,-0.39,-0.05,0.54,9.93,87.8,-96
4027,211.242,0.82,0.77,-0.49,-0.10,0.59,9.93,87.8,-96
4028,211.325,0.83,0.82,-0.49,-0.15,0.64,9.93,87.8,-96
4029,211.409,0.83,0.97,-0.64,-0.24,0.69,9.43,87.8,-96
4030,211.492,0.74,1.14,-0.78,-0.24,0.78,9.53,87.8,-96
4031,211.576,0.76,1.26,-0.93,-0.20,0.83,9.62,87.8,-96
4032,211.660,0.82,1.06,-0.98,-0.10,0.39,10.33,88.5,-103
4033,211.743,0.74,1.08,-0.98,-0.15,0.44,10.43,88.5,-103
4034,211.827,0.76,1.23,-1.13,-0.24,0.44,10.54,88.5,-103
4035,211.911,0.76,1.26,-1.13,-0.29,0.49,9.92,88.5,-103
4036,211.994,0.66,1.40,-1.22,-0.34,0.59,9.92,88.5,-103
4037,212.078,0.68,1.38,-1.18,-0.34,0.64,9.92,88.5,-103
4038,212.178,0.73,0.75,-0.64,-0.05,0.39,10.52,89.2,-98
4039,212.279,0.75,0.70,-0.54,0.00,0.44,10.50,89.2,-98
4040,212.379,0.72,0.91,-0.59,-0.10,0.69,10.49,89.2,-98
4041,212.479,0.72,1.09,-0.69,-0.15,0.83,9.95,89.2,-98
4042,212.579,0.71,1.31,-0.88,-0.24,0.93,10.04,89.2,-98
4043,212.680,0.82,1.49,-1.08,-0.29,0.98,10.13,89.2,-98
4044,212.763,0.85,0.96,-0.83,-0.20,0.44,10.88,89.8,-96
4045,212.847,0.79,1.00,-0.83,-0.34,0.44,10.99,89.8,-96
4046,212.930,0.84,1.04,-0.83,-0.39,0.49,11.11,89.8,-96
4047,213.014,0.84,1.20,-0.98,-0.44,0.54,10.56,89.8,-96
4048,213.098,0.79,1.19,-0.93,-0.44,0.59,10.65,89.8,-96
4049,213.181,0.87,1.26,-1.03,-0.34,0.64,10.75,89.8,-96
4050,213.265,0.83,0.66,-0.49,0.05,0.44,11.53,90.4,-96
4051,213.349,0.68,0.63,-0.39,0.00,0.49,11.64,90.4,-96
4052,213.432,0.66,0.70,-0.54,0.05,0.44,11.75,90.4,-96
4053,213.516,0.66,0.77,-0.59,0.00,0.49,11.06,90.4,-96
4054,213.600,0.65,0.80,-0.59,0.00,0.54,11.06,90.4,-96
4055,213.683,0.69,0.76,-0.54,-0.05,0.54,11.06,90.4,-96
4056,213.767,0.73,0.51,-0.44,-0.05,0.24,11.75,91.0,-93
4057,213.850,0.74,0.59,-0.54,0.00,0.24,11.75,91.0,-93
4058,213.934,0.76,0.73,-0.64,-0.05,0.34,11.75,91.0,-93
4059,214.018,0.76,0.91,-0.83,-0.10,0.34,11.06,91.0,-93
4060,214.101,0.69,0.96,-0.88,-0.15,0.34,11.06,91.0,-93
4061,214.185,0.68,0.92,-0.83,-0.20,0.34,11.06,91.0,-93
4062,214.285,0.67,0.67,-0.54,-0.05,0.39,11.73,91.5,-92
4063,214.385,0.67,0.70,-0.49,-0.10,0.49,11.71,91.5,-92
4064,214.486,0.75,0.74,-0.49,-0.15,0.54,11.69,91.5,-92
4065,214.586,0.75,0.70,-0.49,-0.10,0.49,11.00,91.5,-92
4066,214.686,0.68,0.70,-0.44,-0.05,0.54,11.00,91.5,-92
4067,214.787,0.75,0.70,-0.44,0.00,0.54,11.00,91.5,-92
4068,214.870,0.85,0.62,-0.54,-0.10,0.29,11.71,92.0,-90
4069,214.954,0.81,0.53,-0.44,-0.05,0.29,11.73,92.0,-90
4070,215.037,0.82,0.53,-0.44,0.00,0.29,11.75,92.0,-90
4071,215.121,0.82,0.53,-0.44,0.00,0.29,11.06,92.0,-90
4072,215.205,0.75,0.55,-0.49,0.00,0.24,11.06,92.0,-90
4073,215.288,0.69,0.66,-0.59,0.00,0.29,11.06,92.0,-90
4074,215.371,0.61,0.55,-0.49,0.00,0.24,11.75,92.5,-100
4075,215.455,0.70,0.57,-0.49,0.00,0.29,11.75,92.5,-100
4076,215.538,0.70,0.59,-0.54,0.00,0.24,11.76,92.5,-100
4077,215.621,0.71,0.71,-0.59,-0.05,0.39,11.06,92.5,-100
4078,215.705,0.77,0.67,-0.54,-0.05,0.39,11.06,92.5,-100
4079,215.788,0.81,0.60,-0.49,-0.05,0.34,11.06,92.5,-100
4080,215.872,0.75,0.77,-0.74,-0.10,0.20,11.76,92.9,-93
4081,215.956,0.70,0.56,-0.54,-0.05,0.15,11.76,92.9,-93
4082,216.040,0.66,0.44,-0.39,-0.05,0.20,11.75,92.9,-93
4083,216.124,0.66,0.51,-0.49,0.00,0.15,11.06,92.9,-93
4084,216.208,0.67,0.51,-0.49,-0.05,0.15,11.06,92.9,-93
4085,216.292,0.78,0.56,-0.49,-0.10,0.24,11.06,92.9,-93
4086,216.375,0.82,0.52,-0.44,0.24,0.15,11.75,93.3,-92
4087,216.459,0.84,0.61,-0.54,0.24,0.15,11.75,93.3,-92
4088,216.543,0.92,0.79,-0.74,0.15,0.24,11.75,93.3,-92
4089,216.626,0.92,0.84,-0.78,0.05,0.29,11.08,93.3,-92
4090,216.710,0.83,0.81,-0.74,-0.05,0.34,11.10,93.3,-92
4091,216.793,0.89,0.86,-0.78,-0.10,0.34,11.13,93.3,-92
4092,216.894,0.94,1.01,-0.69,-0.29,0.69,11.82,93.7,-100
4093,216.994,0.90,0.89,-0.59,-0.20,0.64,11.82,93.7,-100
4094,217.094,0.88,0.82,-0.59,-0.20,0.54,11.82,93.7,-100
4095,217.194,0.88,0.86,-0.74,0.00,0.44,11.11,93.7,-100
4096,217.294,0.93,0.93,-0.78,0.05,0.49,11.08,93.7,-100
4097,217.394,0.88,0.73,-0.64,0.05,0.34,11.06,93.7,-100
4098,217.478,0.88,1.03,-0.88,-0.20,0.49,11.75,94.1,-93
4099,217.561,0.88,0.73,-0.54,-0.05,0.49,11.75,94.1,-93
4100,217.645,0.81,0.56,-0.34,-0.05,0.44,11.75,94.1,-93
4101,217.728,0.81,0.53,-0.29,0.00,0.44,11.06,94.1,-93
4102,217.812,0.85,0.52,-0.39,0.00,0.34,11.06,94.1,-93
4103,217.896,0.94,0.61,-0.49,0.10,0.34,11.06,94.1,-93
